timestamp,acc_x,acc_y,acc_z
0.0,4.2900,2.9800,8.2812
50.0,4.2100,2.9800,8.1177
100.0,4.2900,3.0200,8.1586
150.0,4.2900,2.8300,8.0769
200.0,4.2500,2.8700,8.1586
250.0,4.2500,2.8700,8.1177
300.0,4.3300,2.9600,8.1586
350.0,4.3300,2.9600,8.1586
400.0,4.2900,2.9100,8.1586
450.0,4.2500,2.9100,8.1586
500.0,4.2900,2.9100,8.1995
550.0,4.2500,2.8700,8.1995
600.0,4.3300,2.9100,8.1995
650.0,4.2900,2.9100,8.1995
700.0,4.2900,2.7600,8.0496
750.0,4.1800,2.9100,8.1995
800.0,4.1800,2.9100,8.1586
850.0,4.2900,2.9600,8.1177
900.0,4.3700,2.8700,8.0496
950.0,4.3300,3.0600,8.0496
1000.0,4.2500,3.1100,8.1995
1050.0,4.3300,2.9100,8.1177
1100.0,4.3300,2.9100,8.1177
1150.0,4.3700,3.0200,8.1177
1200.0,4.3300,3.0200,8.1995
1250.0,4.3300,2.9600,8.0769
1300.0,4.4400,2.9800,8.0769
1350.0,4.4000,2.9100,8.0769
1400.0,4.2500,2.9100,8.1177
1450.0,4.2500,2.9800,8.1177
1500.0,4.3300,2.8300,8.0088
1550.0,4.2900,3.0200,8.0769
1600.0,4.2100,3.1500,8.1586
1650.0,4.2500,3.1500,8.1177
1700.0,4.3700,3.0200,8.0769
1750.0,4.3300,2.9800,8.1586
1800.0,4.2500,3.0200,8.1177
1850.0,4.2500,3.0600,8.0769
1900.0,4.3700,3.1100,8.0769
1950.0,4.2900,3.1100,8.0496
2000.0,4.2500,3.0600,8.1177
2050.0,4.2100,2.9800,8.0769
2100.0,4.2900,3.1100,8.0769
2150.0,4.2500,3.1100,8.0496
2200.0,4.2900,3.1500,8.1177
2250.0,4.2900,3.1100,8.0769
2300.0,4.2500,2.8700,8.0496
2350.0,4.2500,3.0600,8.1586
2400.0,4.3300,3.1700,8.0769
2450.0,4.2100,3.1700,8.1586
2500.0,4.2100,3.0200,8.1177
2550.0,4.4000,2.7200,8.1177
2600.0,4.4000,2.7200,8.1177
2650.0,4.3700,2.9800,8.0769
2700.0,4.1800,3.1100,8.1177
2750.0,4.1400,3.1500,8.1177
2800.0,4.2900,3.0600,8.0088
2850.0,4.4400,3.0600,8.0769
2900.0,4.3700,3.1100,8.0496
2950.0,4.3300,2.9100,8.0496
3000.0,4.2500,2.9800,8.0496
3050.0,4.2900,3.1700,8.0496
3100.0,4.2900,3.1100,8.0496
3150.0,4.3300,2.9600,8.0769
3200.0,4.2500,3.0600,8.1586
3250.0,4.3700,3.1100,8.0088
3300.0,4.4000,3.0600,8.0088
3350.0,4.3700,3.0600,8.0769
3400.0,4.3300,3.1100,8.0496
3450.0,4.3300,3.1100,8.0088
3500.0,4.3300,3.0600,8.0496
3550.0,4.2900,3.0200,8.0088
3600.0,4.2900,3.0200,8.1177
3650.0,4.2900,3.0200,8.0769
3700.0,4.2900,3.1100,8.0769
3750.0,4.3700,3.0600,8.0496
3800.0,4.3300,3.1100,8.0496
3850.0,4.2500,3.0600,8.0769
3900.0,4.2900,3.0600,8.0496
3950.0,4.3300,3.0200,8.0496
4000.0,4.2500,3.0200,8.0496
4050.0,4.2500,3.0600,8.0769
4100.0,4.2500,2.9600,8.0496
4150.0,4.2900,3.0200,8.0769
4200.0,4.2500,3.0600,8.1177
4250.0,4.2900,3.0200,8.1177
4300.0,4.2100,3.0200,8.0769
4350.0,4.2100,3.0200,8.1586
4400.0,4.2100,2.9800,8.1995
4450.0,4.2100,2.9800,8.1177
4500.0,4.2500,3.0600,8.0769
4550.0,4.2100,3.0600,8.1177
4600.0,4.1800,3.0200,8.1177
4650.0,4.2100,3.0200,8.1177
4700.0,4.2100,3.0200,8.0769
4750.0,4.2500,3.0200,8.1995
4800.0,4.1400,2.9800,8.1995
4850.0,4.1400,2.9800,8.1586
4900.0,4.1800,2.9800,8.0769
4950.0,4.1800,3.0200,8.1177
5000.0,4.1400,3.0200,8.1177
5050.0,4.1800,3.0200,8.0769
5100.0,4.2900,2.9600,8.1995
5150.0,4.1800,3.0200,8.1177
5200.0,4.2500,2.9800,8.1177
5250.0,4.1400,2.9600,8.1995
5300.0,4.1400,2.9600,8.1586
5350.0,4.1000,3.0200,8.0496
5400.0,4.4000,3.1100,7.9679
5450.0,3.9900,3.2600,8.4991
5500.0,4.2900,2.9800,8.1177
5550.0,3.7900,2.3400,8.1177
5600.0,4.2500,3.1500,8.2812
5650.0,4.3300,2.9600,8.0088
5700.0,4.2100,3.0600,8.1177
5750.0,4.2100,2.9100,8.1177
5800.0,4.2900,2.9800,8.2403
5850.0,4.2500,3.1700,8.1586
5900.0,4.1400,3.1100,8.1995
5950.0,4.1000,3.0600,8.1586
6000.0,4.1000,2.9600,8.2403
6050.0,4.1400,2.9600,8.2403
6100.0,4.1400,2.9800,8.1995
6150.0,4.1800,3.0200,8.1995
6200.0,4.1800,3.0200,8.1177
6250.0,4.1400,2.9800,8.1177
6300.0,4.0600,3.0200,8.1177
6350.0,4.1400,3.0200,8.1177
6400.0,4.1800,2.9800,8.1586
6450.0,4.2100,2.9800,8.1586
6500.0,4.1400,3.0200,8.1177
6550.0,4.1000,3.0600,8.1995
6600.0,4.1400,3.0600,8.1586
6650.0,4.1000,2.9800,8.1586
6700.0,4.1400,3.0600,8.1586
6750.0,4.1000,3.0200,8.1586
6800.0,4.1800,3.0200,8.1995
6850.0,4.1400,3.0200,8.1995
6900.0,4.1400,3.0200,8.1586
6950.0,4.1400,3.0600,8.1995
7000.0,4.1400,3.0200,8.1586
7050.0,4.1400,3.0200,8.1995
7100.0,4.1400,2.9800,8.1177
7150.0,4.1800,3.0200,8.1177
7200.0,4.1400,3.0200,8.1586
7250.0,4.1800,3.0200,8.1995
7300.0,4.1800,3.0200,8.1586
7350.0,4.1400,2.9800,8.1586
7400.0,4.1400,3.0200,8.1586
7450.0,4.1400,3.0200,8.1586
7500.0,4.1400,3.0200,8.1586
7550.0,4.1000,3.0600,8.1586
7600.0,4.1000,3.0600,8.1586
7650.0,4.1800,3.0200,8.1995
7700.0,4.1400,3.0200,8.1586
7750.0,4.1400,2.9800,8.1586
7800.0,4.1800,3.0200,8.1586
7850.0,4.1400,3.0200,8.1586
7900.0,4.1400,2.9800,8.2403
7950.0,4.1000,3.0200,8.1586
8000.0,4.1400,2.9800,8.1995
8050.0,4.1400,2.9800,8.1586
8100.0,4.1800,3.0600,8.1586
8150.0,4.1400,2.9800,8.1586
8200.0,4.1400,3.0200,8.1995
8250.0,4.1000,3.0200,8.1586
8300.0,4.1000,3.0200,8.1177
8350.0,4.1400,3.0200,8.1995
8400.0,4.1400,2.9800,8.1995
8450.0,4.1400,3.0200,8.1995
8500.0,4.1400,2.9800,8.1995
8550.0,4.1000,2.9800,8.1995
8600.0,4.1000,3.0200,8.2403
8650.0,4.0600,2.9600,8.1995
8700.0,4.1400,2.9800,8.1586
8750.0,4.1400,3.0200,8.1995
8800.0,4.1400,3.0200,8.1586
8850.0,4.1400,3.0200,8.1177
8900.0,4.1000,3.0200,8.1586
8950.0,4.1400,3.0200,8.1586
9000.0,4.1400,3.0200,8.1586
9050.0,4.1400,3.0600,8.1586
9100.0,4.1000,3.0600,8.1995
9150.0,4.1000,3.0200,8.1177
9200.0,4.1400,3.0200,8.1586
9250.0,4.1400,3.0200,8.1177
9300.0,4.1000,3.0200,8.1177
9350.0,4.1400,3.0200,8.1586
9400.0,4.1000,2.9600,8.1995
9450.0,4.1400,2.9800,8.1995
9500.0,4.1400,3.0200,8.1586
9550.0,4.1000,2.9800,8.1995
9600.0,4.1400,3.0200,8.1995
9650.0,4.1000,3.0200,8.1995
9700.0,4.1000,3.0200,8.1177
9750.0,4.1000,3.0200,8.1586
9800.0,4.1000,2.9800,8.1995
9850.0,4.1400,3.0200,8.2403
9900.0,4.0600,2.9800,8.1995
9950.0,4.1000,2.9800,8.2403
10000.0,4.1000,2.9800,8.2403
10050.0,4.1000,2.9800,8.2403
10100.0,4.0600,2.9800,8.1995
10150.0,4.1000,3.0200,8.2403
10200.0,4.1000,3.0200,8.2403
10250.0,4.1000,2.9800,8.1177
10300.0,4.1000,2.9800,8.1995
10350.0,4.1000,2.9800,8.1995
10400.0,4.1000,3.0200,8.1586
10450.0,4.1000,3.0200,8.1586
10500.0,4.1000,3.0200,8.1586
10550.0,4.1000,3.0200,8.1995
10600.0,4.1400,2.9800,8.1995
10650.0,4.1000,2.9800,8.1177
10700.0,4.1400,3.0200,8.1586
10750.0,4.1000,3.0200,8.1995
10800.0,4.1000,2.9800,8.1995
10850.0,4.1000,2.9800,8.1995
10900.0,4.1400,3.0200,8.1995
10950.0,4.1000,2.9800,8.1586
11000.0,4.1400,2.9800,8.2403
11050.0,4.0200,2.9800,8.2403
11100.0,4.1000,3.0200,8.1995
11150.0,4.1400,3.0200,8.1995
11200.0,4.1000,3.0200,8.1586
11250.0,4.1000,3.0200,8.1995
11300.0,4.1000,3.0200,8.1995
11350.0,4.0200,3.0200,8.1586
11400.0,4.1400,3.0200,8.1177
11450.0,4.1400,3.0200,8.1586
11500.0,4.1400,3.0200,8.1995
11550.0,4.1400,2.9800,8.1586
11600.0,4.1400,3.0200,8.1995
11650.0,4.1400,2.9800,8.1586
11700.0,4.1000,3.0200,8.1586
11750.0,4.1000,2.9800,8.2403
11800.0,4.1000,2.9800,8.1995
11850.0,4.1000,3.0200,8.1995
11900.0,4.1000,2.9800,8.1995
11950.0,4.1000,3.0200,8.1586
12000.0,4.1400,2.9800,8.1586
12050.0,4.1400,3.0200,8.1995
12100.0,4.1000,3.0200,8.1177
12150.0,4.1400,3.0200,8.1177
12200.0,4.1400,3.0200,8.1177
12250.0,4.1400,3.0200,8.1586
12300.0,4.1000,3.0200,8.1586
12350.0,4.1000,3.0200,8.1177
12400.0,4.1400,3.0200,8.1995
12450.0,4.1000,3.0600,8.1177
12500.0,4.1400,3.0200,8.1177
12550.0,4.1400,3.0200,8.0769
12600.0,4.1400,3.0200,8.0769
12650.0,4.1800,3.0200,8.1586
12700.0,4.1800,3.0200,8.1586
12750.0,4.1000,2.9800,8.1177
12800.0,4.1000,3.0200,8.1586
12850.0,4.1000,2.9800,8.1586
12900.0,4.1000,3.0200,8.1995
12950.0,4.0600,3.0200,8.1586
13000.0,4.0200,3.0200,8.1586
13050.0,4.1000,2.9800,8.1586
13100.0,4.0200,3.0200,8.1177
13150.0,4.1400,3.0200,8.1995
13200.0,4.0600,2.9800,8.1177
13250.0,4.0200,3.0200,8.1995
13300.0,4.1000,3.0200,8.1995
13350.0,4.0600,3.0200,8.1586
13400.0,4.1000,2.9800,8.1995
13450.0,4.0600,3.0200,8.1177
13500.0,4.1000,2.9800,8.0769
13550.0,4.0600,3.0600,8.1995
13600.0,4.0600,3.0200,8.0769
13650.0,4.1000,2.9800,8.1177
13700.0,4.1000,2.9800,8.1586
13750.0,4.0600,3.0600,8.1586
13800.0,4.0600,3.0200,8.1586
13850.0,4.0600,3.0200,8.1177
13900.0,4.1000,3.0200,8.1586
13950.0,4.0600,3.0200,8.1586
14000.0,4.1000,3.0200,8.0769
14050.0,4.1400,3.0200,8.1177
14100.0,4.1000,3.0200,8.1177
14150.0,4.1000,3.0200,8.1586
14200.0,4.0600,2.9800,8.1586
14250.0,4.1000,3.0200,8.1995
14300.0,4.1000,3.0200,8.1586
14350.0,4.1000,2.9800,8.1586
14400.0,4.0600,3.0200,8.1586
14450.0,4.0600,3.0200,8.1586
14500.0,4.1000,3.0200,8.1586
14550.0,4.1400,3.0200,8.1177
14600.0,4.1000,3.0200,8.1177
14650.0,4.1000,3.0600,8.1177
14700.0,4.1000,3.0200,8.1586
14750.0,4.1000,3.0200,8.0769
14800.0,4.0600,3.0200,8.1177
14850.0,4.0600,3.0200,8.1586
14900.0,4.1000,3.0200,8.1586
14950.0,4.1000,2.9800,8.0769
15000.0,4.1000,3.0200,8.1177
15050.0,4.1000,3.0200,8.1177
15100.0,4.1000,3.0600,8.1177
15150.0,4.0600,3.0200,8.1177
15200.0,4.1000,3.0200,8.1586
15250.0,4.1000,3.0200,8.1995
15300.0,4.0600,3.0200,8.1586
15350.0,4.1000,2.9800,8.1177
15400.0,4.1000,3.0200,8.1586
15450.0,4.0600,3.0200,8.1177
15500.0,4.1400,3.0200,8.1177
15550.0,4.1000,3.0600,8.1586
15600.0,4.1000,3.0200,8.1995
15650.0,4.1000,3.0200,8.1995
15700.0,4.1000,3.0200,8.1586
15750.0,4.1000,2.9800,8.1586
15800.0,4.0600,3.0600,8.0769
15850.0,4.0600,3.0600,8.0769
15900.0,4.0200,3.0200,8.1586
15950.0,4.0600,3.0200,8.1995
16000.0,4.1000,2.9800,8.1995
16050.0,4.0600,3.0200,8.1586
16100.0,4.1000,3.0200,8.2403
16150.0,4.0600,3.0200,8.1177
16200.0,4.0600,3.0200,8.1995
16250.0,4.0600,3.0200,8.1586
16300.0,4.0200,3.0200,8.1995
16350.0,4.1000,3.0600,8.1177
16400.0,4.1000,3.0200,8.1586
16450.0,4.0600,2.9800,8.1586
16500.0,4.0600,3.0200,8.1177
16550.0,4.0200,2.9800,8.1177
16600.0,4.0200,3.0200,8.2812
16650.0,4.1000,3.0200,8.0769
16700.0,4.1000,3.0600,8.1586
16750.0,4.0200,3.0200,8.2403
16800.0,4.1000,3.0200,8.0769
16850.0,4.1800,3.1100,8.0496
16900.0,4.1800,3.0200,8.0769
16950.0,4.2900,3.1100,7.8862
17000.0,4.0600,2.3000,7.6955
17050.0,3.1500,2.1800,8.2403
17100.0,1.7600,2.5600,9.4253
17150.0,3.6400,3.1100,9.1120
17200.0,5.7500,4.1000,8.0496
17250.0,9.5300,6.8900,7.0145
17300.0,8.7300,6.8500,4.8216
17350.0,3.7600,2.7200,2.4517
17400.0,6.6600,0.0800,7.5048
17450.0,2.6400,3.2600,9.1937
17500.0,3.1500,3.5300,7.6274
17550.0,2.1100,1.3800,7.8181
17600.0,2.9800,2.7200,9.2346
17650.0,4.1000,3.1700,8.3493
17700.0,4.2900,3.6000,7.5457
17750.0,5.5600,3.9500,7.8589
17800.0,5.0500,3.9500,7.5865
17850.0,3.7600,3.1100,8.1177
17900.0,4.1800,3.1700,8.6898
17950.0,4.1800,2.9800,8.0496
18000.0,4.6000,3.4100,7.8862
18050.0,4.4000,2.9100,7.8862
18100.0,4.2500,2.9600,8.2812
18150.0,3.9500,3.1100,8.2403
18200.0,4.1000,3.2600,8.0496
18250.0,4.1800,3.1700,8.0496
18300.0,4.0600,3.1100,8.1177
18350.0,3.9900,3.0600,8.1995
18400.0,4.0200,3.1700,8.1586
18450.0,4.1800,3.1100,8.0769
18500.0,4.1400,3.1100,8.0769
18550.0,4.0600,3.1100,8.0088
18600.0,4.1800,3.1500,8.0496
18650.0,4.2500,3.0600,8.0088
18700.0,4.3300,3.0200,8.0496
18750.0,4.2100,3.1500,8.0496
18800.0,4.2500,3.1100,8.0769
18850.0,4.3300,3.1100,8.0088
18900.0,4.3700,3.1500,8.0496
18950.0,4.2500,3.1700,8.0769
19000.0,4.2100,3.1100,8.0769
19050.0,4.2100,3.1100,8.0769
19100.0,4.1000,3.0200,7.9679
19150.0,4.1000,3.1100,8.0088
19200.0,4.2500,3.2100,8.0496
19250.0,4.4000,3.1100,8.0496
19300.0,4.4400,2.8700,7.9679
19350.0,4.2900,2.9800,8.0769
19400.0,4.2100,3.1500,8.0769
19450.0,4.3300,3.1500,7.8862
19500.0,4.2900,2.9800,7.9270
19550.0,4.1000,2.9100,8.0769
19600.0,4.2500,2.8700,8.0088
19650.0,4.2500,2.9600,7.9270
19700.0,4.1000,3.0600,8.0088
19750.0,4.2900,3.1500,8.0088
19800.0,4.4400,2.9800,8.0088
19850.0,4.5200,3.1100,8.0769
19900.0,4.5600,3.1700,8.0769
19950.0,4.6000,3.1100,8.0769
20000.0,4.3300,3.0200,8.0769
20050.0,4.1800,2.9600,7.9270
20100.0,4.1000,3.0600,8.0769
20150.0,4.3700,3.0600,7.9270
20200.0,4.2500,3.0200,8.0496
20250.0,4.2500,2.9600,7.9679
20300.0,4.2500,3.1100,8.0496
20350.0,4.3300,3.1100,8.0088
20400.0,4.3300,3.0600,7.9679
20450.0,4.3300,2.9800,7.9270
20500.0,4.3300,3.0600,8.0769
20550.0,4.2500,2.9600,7.9270
20600.0,4.2100,2.8300,7.8862
20650.0,4.6300,3.2600,8.3901
20700.0,4.7100,3.3400,8.0496
20750.0,4.6300,3.3800,7.8862
20800.0,4.2100,3.1100,7.9270
20850.0,4.0600,2.6800,8.1177
20900.0,3.8300,2.4500,7.7772
20950.0,4.2100,2.9600,7.9270
21000.0,4.5200,3.2600,7.9679
21050.0,4.6300,3.0600,8.0769
21100.0,4.6000,3.0200,8.0769
21150.0,4.4000,3.1500,7.9679
21200.0,4.4400,3.1100,8.0088
21250.0,4.3300,2.9800,8.0088
21300.0,4.2100,2.9600,7.9679
21350.0,4.2500,2.9600,7.9679
21400.0,4.4000,3.0600,8.0088
21450.0,4.4400,2.9800,8.0088
21500.0,4.4000,3.0200,8.0496
21550.0,4.3700,3.0600,8.0496
21600.0,4.3700,3.0200,8.0496
21650.0,4.4000,3.0600,7.9679
21700.0,4.3300,3.0200,8.0769
21750.0,4.3300,2.9800,7.9679
21800.0,4.3300,2.9600,7.9270
21850.0,4.1000,2.8300,7.9270
21900.0,4.4000,3.0600,8.0769
21950.0,4.4800,3.1500,8.0496
22000.0,4.4800,3.2100,8.0088
22050.0,4.3700,3.0200,7.9679
22100.0,4.2100,2.9800,7.9679
22150.0,4.1800,2.9600,8.0088
22200.0,4.3300,3.0200,8.0088
22250.0,4.4400,3.0600,8.0088
22300.0,4.4400,3.1100,7.9679
22350.0,4.3300,3.0200,8.0088
22400.0,4.3300,2.9800,8.0088
22450.0,4.4400,3.1100,7.9679
22500.0,4.4000,3.0600,8.0088
22550.0,4.3700,3.0200,7.9679
22600.0,4.3300,3.0200,7.9679
22650.0,4.3300,3.0600,7.9679
22700.0,4.3700,3.0200,8.0088
22750.0,4.3300,2.9600,8.0088
22800.0,4.2500,2.9800,8.0496
22850.0,4.3300,3.0200,8.0088
22900.0,4.4000,3.0600,8.0769
22950.0,4.3300,2.9800,7.8862
23000.0,4.2500,2.9800,8.0496
23050.0,4.2500,3.0600,8.0769
23100.0,4.2500,2.9800,8.0496
23150.0,4.3300,2.9800,8.0496
23200.0,4.2900,2.9600,8.0769
23250.0,4.2900,2.9800,8.0088
23300.0,4.3700,2.9800,8.0769
23350.0,4.3700,2.9800,8.0769
23400.0,4.2500,2.9800,8.0496
23450.0,4.2900,2.9600,8.0088
23500.0,4.3300,2.9800,8.0088
23550.0,4.2900,3.0200,8.0088
23600.0,4.2900,2.9800,8.0769
23650.0,4.2900,3.0200,8.0496
23700.0,4.2900,3.0200,8.0496
23750.0,4.2900,2.9800,8.0088
23800.0,4.2900,2.9800,8.0088
23850.0,4.2900,2.9800,8.0088
23900.0,4.2900,2.9800,8.0496
23950.0,4.2900,3.0200,8.0769
24000.0,4.2900,3.0200,8.0769
24050.0,4.2900,3.0200,8.0088
24100.0,4.2900,3.0200,7.9679
24150.0,4.2900,2.9800,8.0496
24200.0,4.2500,2.9800,8.0088
24250.0,4.2900,3.0200,8.0496
24300.0,4.3300,2.9800,7.9679
24350.0,4.3300,2.9800,8.0496
24400.0,4.3300,3.0200,8.0088
24450.0,4.2900,2.9800,8.0496
24500.0,4.2900,3.0200,8.0088
24550.0,4.2500,2.9800,8.0496
24600.0,4.2900,3.0200,8.0088
24650.0,4.3300,2.9800,8.0088
24700.0,4.2900,3.0200,8.0769
24750.0,4.2900,2.9800,8.0496
24800.0,4.3300,3.0200,8.0088
24850.0,4.3700,3.0600,8.0769
24900.0,4.2900,3.0200,8.0088
24950.0,4.2900,2.9800,8.0496
25000.0,4.3300,3.0200,8.0088
25050.0,4.3300,3.0200,8.0088
25100.0,4.3300,2.9800,8.0088
25150.0,4.3300,3.0200,8.0088
25200.0,4.3300,3.0200,8.0088
25250.0,4.3700,3.0200,8.0088
25300.0,4.3300,3.0200,8.0088
25350.0,4.2900,3.0600,8.0088
25400.0,4.2900,3.0200,8.0496
25450.0,4.3300,3.0200,8.0496
25500.0,4.2500,2.9800,7.9679
25550.0,4.2500,2.9800,8.0088
25600.0,4.3300,2.9800,8.0088
25650.0,4.3300,3.0200,8.0088
25700.0,4.2900,3.0600,8.0496
25750.0,4.3700,3.0200,8.0088
25800.0,4.3300,2.9800,8.0496
25850.0,4.2900,3.0200,8.0769
25900.0,4.3300,3.0200,8.0496
25950.0,4.3300,3.0200,8.0496
26000.0,4.2900,3.0200,8.0088
26050.0,4.2900,3.0200,8.0496
26100.0,4.2900,2.9800,8.0088
26150.0,4.2900,3.0200,8.0088
26200.0,4.2900,2.9800,8.0088
26250.0,4.3700,3.0200,8.0088
26300.0,4.3300,3.0600,7.9679
26350.0,4.3300,3.0600,8.0088
26400.0,4.2500,3.0200,7.9679
26450.0,4.3300,3.0200,8.0088
26500.0,4.3300,3.0200,8.0088
26550.0,4.2900,3.0200,8.0088
26600.0,4.3300,3.0200,8.0496
26650.0,4.2900,3.0200,8.0088
26700.0,4.2900,3.0600,8.0496
26750.0,4.3300,3.0200,8.0088
26800.0,4.2900,2.9800,8.0088
26850.0,4.3700,3.0200,8.0088
26900.0,4.2900,3.0200,8.0088
26950.0,4.3300,3.1100,8.0088
27000.0,4.2900,3.1100,7.9679
27050.0,4.1800,3.0600,8.0496
27100.0,4.2500,3.1100,8.0496
27150.0,4.2500,3.0200,7.9679
27200.0,4.2900,3.0200,7.9679
27250.0,4.3300,3.0600,8.0496
27300.0,4.3700,3.2100,7.9679
27350.0,4.4800,2.9800,8.0088
27400.0,4.2900,3.1100,7.9679
27450.0,4.3300,3.1100,8.0769
27500.0,4.3300,3.1100,8.0088
27550.0,4.2100,3.0200,7.9270
27600.0,4.2100,3.2600,7.9270
27650.0,4.4800,3.1700,7.9270
27700.0,4.4400,3.3000,7.8862
27750.0,4.3300,3.1700,7.9679
27800.0,4.0600,3.2100,7.9679
27850.0,4.2900,2.9800,7.9270
27900.0,4.4400,2.7200,7.8589
27950.0,4.3700,3.0200,7.8862
28000.0,4.2900,3.3000,7.9679
28050.0,4.5200,3.3400,7.8589
28100.0,4.4400,2.8700,8.0769
28150.0,4.2100,2.8300,8.1586
28200.0,4.3300,3.0600,8.0088
28250.0,4.6000,3.1700,7.8181
28300.0,4.7500,3.1700,8.0769
28350.0,4.1800,3.0200,8.0088
28400.0,3.8700,3.2600,8.0088
28450.0,4.2500,3.1700,7.9270
28500.0,4.4800,3.0200,8.0496
28550.0,4.2900,2.9600,8.0496
28600.0,4.1000,2.9800,8.0088
28650.0,4.3700,2.9600,8.0088
28700.0,4.5200,2.9800,7.9270
28750.0,4.3700,3.0600,8.0088
28800.0,4.4000,3.1700,7.9679
28850.0,4.1000,3.0600,8.1177
28900.0,4.7100,3.1500,7.8181
28950.0,4.1800,2.9800,7.9679
29000.0,4.1800,3.0600,8.1177
29050.0,4.1800,3.0600,8.1177
29100.0,4.2100,2.9100,8.0496
29150.0,4.2900,3.0600,8.1177
29200.0,4.2100,3.0600,8.0496
29250.0,4.2900,3.1500,8.0496
29300.0,4.2900,3.1100,7.9679
29350.0,4.3700,3.2600,8.0496
29400.0,4.4000,3.1700,8.0496
29450.0,4.4400,3.1700,8.1177
29500.0,4.3700,2.9800,8.0088
29550.0,4.3700,2.9800,8.0088
29600.0,4.3700,2.9800,8.0088
29650.0,4.0200,2.8700,8.1177
29700.0,4.1000,3.0600,8.0088
29750.0,4.2100,3.2100,7.8862
29800.0,4.4400,3.2600,8.0496
29850.0,4.4400,3.2100,7.9679
29900.0,4.3700,3.1500,7.9270
29950.0,4.2900,3.1500,8.0496
30000.0,4.2500,3.1100,8.0496
30050.0,4.2100,3.1100,7.9679
30100.0,4.1800,3.1100,7.9270
30150.0,4.2100,3.1700,8.0496
30200.0,4.4000,3.1500,8.0088
30250.0,4.4000,3.0200,7.8862
30300.0,4.3700,3.1100,8.0088
30350.0,4.3700,3.1100,8.0088
30400.0,4.3300,2.9800,7.9679
30450.0,4.4000,3.0200,8.0088
30500.0,4.2500,3.0600,8.0088
30550.0,4.4000,3.1100,7.9270
30600.0,4.4400,3.0200,7.9270
30650.0,4.4000,3.0200,7.9679
30700.0,4.4000,3.0600,7.9679
30750.0,4.4000,3.1100,7.9270
30800.0,4.4000,3.1500,8.0088
30850.0,4.2900,3.0600,8.0088
30900.0,4.2900,3.0200,8.0088
30950.0,4.2900,3.0200,8.0088
31000.0,4.2900,3.0200,8.0088
31050.0,4.2900,2.9100,8.0088
31100.0,4.3700,3.0200,8.0769
31150.0,4.4800,3.0600,7.9679
31200.0,4.4400,3.0200,7.9270
31250.0,4.3300,3.0200,8.0496
31300.0,4.3700,3.0200,8.0088
31350.0,4.3300,3.1100,7.9270
31400.0,4.2100,3.0600,8.0088
31450.0,4.2100,3.0600,8.0496
31500.0,4.3700,2.9800,8.0088
31550.0,4.4000,3.0200,7.9679
31600.0,4.3300,2.9800,8.0088
31650.0,4.3300,3.0200,8.0496
31700.0,4.3700,3.0600,8.0496
31750.0,4.3700,3.0200,8.0088
31800.0,4.2900,3.0200,8.0088
31850.0,4.2900,3.0600,8.0088
31900.0,4.2900,3.0200,8.0088
31950.0,4.2500,3.0600,8.0088
32000.0,4.2900,3.0200,8.0496
32050.0,4.3700,3.0600,7.9679
32100.0,4.3300,3.0200,8.0088
32150.0,4.3300,3.0200,8.0088
32200.0,4.2900,3.0200,8.0088
32250.0,4.2900,3.0600,8.0769
32300.0,4.2900,3.0600,8.0088
32350.0,4.3300,3.0600,8.0088
32400.0,4.2900,3.0600,8.0088
32450.0,4.2900,3.0600,8.0088
32500.0,4.3300,3.0600,8.0088
32550.0,4.2500,3.0200,8.0088
32600.0,4.2500,3.0600,8.0088
32650.0,4.2900,3.0600,7.9679
32700.0,4.3300,3.0600,8.0088
32750.0,4.2500,3.0600,8.0088
32800.0,4.2100,3.0600,8.0496
32850.0,4.2900,3.1100,8.0088
32900.0,4.2900,3.0600,8.0496
32950.0,4.2900,3.0600,8.0088
33000.0,4.2100,2.9100,8.0496
33050.0,4.3300,2.9800,8.0088
33100.0,4.3700,3.0200,8.0496
33150.0,4.3700,3.0600,7.9679
33200.0,4.2500,3.0600,8.0496
33250.0,4.2500,3.0600,7.9679
33300.0,4.2900,3.1500,8.0496
33350.0,4.2100,3.1100,8.0496
33400.0,4.2500,3.0600,8.0088
33450.0,4.2900,3.0600,8.0496
33500.0,4.2500,3.0600,8.0769
33550.0,4.2100,3.0600,8.0088
33600.0,4.3300,3.0200,7.9679
33650.0,4.3300,3.0200,7.9679
33700.0,4.2900,3.0200,8.0088
33750.0,4.2900,3.0200,8.0088
33800.0,4.3700,3.0200,8.0088
33850.0,4.2900,3.0600,8.0088
33900.0,4.2500,3.0600,8.0496
33950.0,4.2100,3.0200,7.9679
34000.0,4.2900,2.9800,8.0088
34050.0,4.2900,2.9800,8.0088
34100.0,4.2900,3.1100,8.0496
34150.0,4.3700,3.0600,7.9270
34200.0,4.2900,3.1100,8.0496
34250.0,4.2900,3.0600,8.0088
34300.0,4.2900,3.0600,8.0496
34350.0,4.3300,3.0200,7.9270
34400.0,4.2100,3.0200,8.0496
34450.0,4.2500,3.0200,8.0496
34500.0,4.3300,3.1100,7.9679
34550.0,4.3300,3.1100,8.0496
34600.0,4.3300,3.0600,8.0769
34650.0,4.2900,3.0200,8.0088
34700.0,4.3700,3.0600,7.9679
34750.0,4.3700,3.0200,7.9679
34800.0,4.3300,3.0200,8.0496
34850.0,4.3700,3.0200,7.9270
34900.0,4.2100,3.0600,8.0496
34950.0,4.2500,3.0200,8.0496
35000.0,4.3300,3.1500,8.0496
35050.0,4.5200,3.1100,7.9679
35100.0,4.0200,2.9100,7.9270
35150.0,4.1000,2.9800,8.1995
35200.0,4.3700,3.0600,8.0088
35250.0,4.5200,3.1700,7.9679
35300.0,4.4800,2.9800,7.8862
35350.0,4.3700,2.9800,8.0496
35400.0,4.2500,2.9600,8.0088
35450.0,4.2500,3.0600,7.9679
35500.0,4.2900,3.1100,8.0088
35550.0,4.2500,3.0600,8.0496
35600.0,4.1800,2.9600,8.0088
35650.0,4.1800,2.9600,8.0496
35700.0,4.2900,3.0200,8.0769
35750.0,4.3700,3.0600,8.0088
35800.0,4.3700,2.9800,8.0496
35850.0,4.3300,3.0200,8.0496
35900.0,4.3300,3.0200,8.0088
35950.0,4.3300,3.0200,8.0088
36000.0,4.3300,3.0200,8.0088
36050.0,4.3300,3.0200,8.0496
36100.0,4.3300,3.0200,8.0496
36150.0,4.3300,3.0600,8.0496
36200.0,4.3300,3.0600,8.0088
36250.0,4.2900,3.0200,8.0088
36300.0,4.2900,3.0200,8.0496
36350.0,4.2900,2.9800,8.0496
36400.0,4.3300,2.9800,8.0496
36450.0,4.3700,3.0600,8.0496
36500.0,4.2900,3.0200,8.0496
36550.0,4.3300,3.0200,8.0088
36600.0,4.2900,3.0200,8.0496
36650.0,4.2100,3.0200,8.0088
36700.0,4.3300,3.0200,7.9679
36750.0,4.3700,3.0200,8.0496
36800.0,4.2500,3.0200,7.9679
36850.0,4.3300,2.9800,8.0088
36900.0,4.2900,2.9800,8.0496
36950.0,4.2900,2.9800,8.0088
37000.0,4.3300,2.9800,8.0496
37050.0,4.2900,3.0200,8.0496
37100.0,4.3300,2.9800,8.0769
37150.0,4.2100,3.2600,8.0496
37200.0,4.4000,2.9600,7.9679
37250.0,4.2500,2.8700,8.0088
37300.0,4.3300,3.0600,8.0496
37350.0,4.2900,3.0600,7.9270
37400.0,4.3700,3.0200,8.0088
37450.0,4.3300,2.9800,8.0088
37500.0,4.2900,3.0600,7.9679
37550.0,4.2900,3.0200,8.0088
37600.0,4.2500,3.0200,8.0496
37650.0,4.2900,3.0200,8.0088
37700.0,4.2900,3.0200,8.0088
37750.0,4.2900,3.0200,8.0496
37800.0,4.2900,3.0200,8.0496
37850.0,4.3300,3.0200,8.0496
37900.0,4.3300,3.0200,8.0088
37950.0,4.3300,3.0600,8.0496
38000.0,4.2500,3.0200,8.0496
38050.0,4.2900,3.0200,8.0088
38100.0,4.3700,3.0200,7.9679
38150.0,4.2500,3.0200,8.0769
38200.0,4.2100,3.1100,8.0496
38250.0,4.2100,2.9800,7.9679
38300.0,4.3700,2.9800,7.9679
38350.0,4.2900,3.0200,8.0496
38400.0,4.3300,3.1100,8.0496
38450.0,4.3300,3.0200,8.0088
38500.0,4.3300,3.0600,8.0088
38550.0,4.2100,3.0600,8.0088
38600.0,4.3300,3.0200,8.0088
38650.0,4.3300,3.0600,8.0496
38700.0,4.3300,3.0200,8.0496
38750.0,4.3300,3.0600,8.0088
38800.0,4.3700,3.0200,7.9270
38850.0,4.3300,3.1100,7.9679
38900.0,4.2900,3.0200,8.0496
38950.0,4.3700,3.0600,8.0088
39000.0,4.2900,3.0600,8.0496
39050.0,4.2500,3.0200,7.9679
39100.0,4.3300,3.0600,8.0769
39150.0,4.2900,3.0600,8.0496
39200.0,4.3300,2.9800,8.0496
39250.0,4.2900,3.0200,8.0088
39300.0,4.2900,3.0200,8.0088
39350.0,4.3300,3.0200,7.9679
39400.0,4.3700,3.0600,7.9679
39450.0,4.2900,3.0600,8.0088
39500.0,4.3300,3.0200,8.0088
39550.0,4.3300,3.0600,8.0088
39600.0,4.2900,3.0200,7.9679
39650.0,4.2500,3.0200,8.0088
39700.0,4.3300,3.0200,8.0496
39750.0,4.2900,3.0600,8.0769
39800.0,4.2900,2.9800,7.9679
39850.0,4.2900,3.0200,8.0496
39900.0,4.2500,3.0200,8.0088
39950.0,4.2500,3.0600,8.0088
40000.0,4.2900,3.0200,8.0088
40050.0,4.2500,3.0200,8.0496
40100.0,4.2500,3.0600,8.0088
40150.0,4.2500,3.0200,8.1177
40200.0,4.2500,3.0600,8.0088
40250.0,4.2900,3.0600,8.0088
40300.0,4.2500,3.0200,8.0769
40350.0,4.2500,3.0200,8.0088
40400.0,4.2900,2.9600,8.0088
40450.0,4.2900,3.0200,8.0088
40500.0,4.3300,3.1500,7.9679
40550.0,4.1400,3.1500,8.0496
40600.0,4.2100,3.1100,8.0496
40650.0,4.2500,3.1100,8.0496
40700.0,4.3300,3.1100,7.9679
40750.0,4.2500,3.1100,8.0496
40800.0,4.2900,3.0200,7.9679
40850.0,4.2900,3.1100,8.0088
40900.0,4.2900,3.1100,8.0088
40950.0,4.2900,3.1100,8.0088
41000.0,4.2900,3.0600,8.0088
41050.0,4.3300,3.1500,7.9270
41100.0,4.3300,3.1100,8.0088
41150.0,4.2500,3.1100,8.0769
41200.0,4.2500,3.0600,8.0496
41250.0,4.2900,3.0600,8.0088
41300.0,4.1800,3.1100,8.0088
41350.0,4.1800,3.0600,8.0496
41400.0,4.2100,3.1100,8.0088
41450.0,4.2100,3.0600,8.0769
41500.0,4.2500,3.0200,8.0496
41550.0,4.2900,3.0200,8.0496
41600.0,4.2900,3.0600,8.0496
41650.0,4.2100,3.1700,8.1177
41700.0,4.2500,3.2100,8.0496
41750.0,4.2500,3.0600,8.0088
41800.0,4.1400,2.9800,7.9679
41850.0,4.2500,3.0600,8.0496
41900.0,4.3700,3.2100,8.0496
41950.0,4.2100,3.0600,8.0088
42000.0,4.3700,3.1500,8.1586
42050.0,4.2500,2.9800,7.9679
42100.0,3.9900,3.0200,8.0769
42150.0,4.1800,2.9800,8.0496
42200.0,4.4800,3.1700,7.9679
42250.0,4.3700,2.9800,7.9270
42300.0,4.1800,3.1100,8.0769
42350.0,4.1800,3.0600,8.0088
42400.0,4.2100,3.1500,8.1177
42450.0,4.2900,3.1100,7.9679
42500.0,4.2100,3.0600,8.0769
42550.0,4.2900,3.0600,8.0769
42600.0,4.3300,3.0200,7.9679
42650.0,4.2900,3.0600,7.9679
42700.0,4.2500,3.0600,8.0496
42750.0,4.2500,3.0600,7.9679
42800.0,4.2500,3.0600,8.0769
42850.0,4.2500,3.1100,8.0496
42900.0,4.2100,3.0200,8.0088
42950.0,4.2500,2.9800,8.0496
43000.0,4.2500,3.0600,8.0496
43050.0,4.3300,3.0600,8.0769
43100.0,4.2900,3.0200,8.0496
43150.0,4.2500,3.0200,8.0769
43200.0,4.2100,3.1100,8.0088
43250.0,4.2900,3.0200,8.0496
43300.0,4.2900,3.0600,8.0769
43350.0,4.2100,3.0200,8.0496
43400.0,4.2100,3.0600,8.0088
43450.0,4.2500,2.9800,8.0088
43500.0,4.2900,3.0200,8.0088
43550.0,4.3300,3.0600,8.0088
43600.0,4.2900,3.1100,8.0088
43650.0,4.3700,3.1100,8.0496
43700.0,4.2900,3.0600,8.0769
43750.0,4.1400,3.0200,8.0496
43800.0,4.2500,3.0200,8.0769
43850.0,4.4000,3.0200,7.8589
43900.0,4.3700,3.0600,8.1177
43950.0,4.4000,3.0600,7.8589
44000.0,4.3300,3.0600,8.0088
44050.0,4.2500,3.0200,8.0496
44100.0,4.2100,3.1500,8.0769
44150.0,4.3300,3.0600,8.0496
44200.0,4.3300,3.0200,7.9679
44250.0,4.4000,3.0600,8.0496
44300.0,4.2100,3.0600,7.9679
44350.0,4.1800,3.0200,8.0496
44400.0,4.2500,2.9600,8.0088
44450.0,4.4000,3.0600,8.0769
44500.0,4.2900,3.0200,8.0088
44550.0,4.3300,3.0600,8.0088
44600.0,4.3300,3.0600,8.0496
44650.0,4.2900,3.0600,8.0088
44700.0,4.1800,3.0600,8.0496
44750.0,4.2100,2.9800,8.0088
44800.0,4.2500,3.0200,8.0496
44850.0,4.2500,3.0600,8.0496
44900.0,4.2500,3.0200,8.0496
44950.0,4.2500,3.0200,8.0496
45000.0,4.2500,3.0200,8.0088
45050.0,4.2500,3.0200,8.0088
45100.0,4.2500,3.0200,8.0496
45150.0,4.2500,3.0200,8.0769
45200.0,4.2900,3.0200,8.0496
45250.0,4.2100,3.0600,8.0496
45300.0,4.2100,3.0200,8.0769
45350.0,4.2100,3.0200,8.0088
45400.0,4.2500,3.0600,8.0088
45450.0,4.2500,3.0600,8.0088
45500.0,4.2500,3.0600,8.0496
45550.0,4.2500,3.0200,8.1177
45600.0,4.2500,3.0200,8.0769
45650.0,4.2500,3.0200,8.0769
45700.0,4.2100,3.0200,7.9679
45750.0,4.2500,2.9800,8.0496
45800.0,4.2500,2.9800,8.0088
45850.0,4.2500,2.9800,8.0088
45900.0,4.2500,3.0600,8.0496
45950.0,4.2100,2.9800,8.1177
46000.0,4.2500,2.9800,8.0496
46050.0,4.2100,2.9800,8.0496
46100.0,4.2500,2.9800,8.0769
46150.0,4.2900,3.0200,8.0088
46200.0,4.2100,2.9800,8.0496
46250.0,4.2500,3.0200,8.0769
46300.0,4.2500,3.0200,8.0769
46350.0,4.2100,3.0200,8.0496
46400.0,4.2500,3.0200,8.0769
46450.0,4.2100,3.0200,8.0769
46500.0,4.2500,3.0600,8.0496
46550.0,4.2500,3.0200,8.0769
46600.0,4.2100,3.0600,8.0769
46650.0,4.2900,3.0200,8.0496
46700.0,4.2100,2.9800,8.0769
46750.0,4.1800,3.0200,8.0496
46800.0,4.2100,3.0200,8.0769
46850.0,4.1800,3.0600,8.0769
46900.0,4.2100,3.0200,8.0088
46950.0,4.2100,3.0200,8.0496
47000.0,4.2500,2.9800,8.0496
47050.0,4.2500,3.0200,8.0496
47100.0,4.2500,3.0200,8.0496
47150.0,4.1800,3.0200,8.0769
47200.0,4.2100,2.9800,8.0769
47250.0,4.2500,2.9800,8.1177
47300.0,4.2100,2.9800,8.0088
47350.0,4.2100,3.0200,8.0088
47400.0,4.2100,3.0200,7.9679
47450.0,4.2900,2.9800,8.0496
47500.0,4.2100,3.0200,8.0496
47550.0,4.2500,3.0200,8.0496
47600.0,4.2900,3.0600,8.0496
47650.0,4.2900,3.0600,8.0496
47700.0,4.2500,2.9800,8.1177
47750.0,4.2500,3.0600,8.0769
47800.0,4.4000,3.1500,8.0088
47850.0,4.3700,2.9600,8.0496
47900.0,4.2100,2.8700,7.9679
47950.0,4.2500,2.9600,7.9270
48000.0,4.2900,2.9100,7.9679
48050.0,4.1800,2.7900,8.0769
48100.0,4.2500,2.9100,8.0496
48150.0,4.2500,3.0200,8.0088
48200.0,4.2900,2.9800,8.0496
48250.0,4.2500,2.9600,7.9679
48300.0,4.2500,2.9100,7.8862
48350.0,4.3300,2.9800,8.1586
48400.0,4.4400,3.2100,8.1586
48450.0,4.4400,3.2100,8.1586
48500.0,4.4400,2.9800,8.1995
48550.0,4.1000,3.0200,7.9270
48600.0,4.2100,3.1500,8.1586
48650.0,4.1800,3.0200,8.0496
48700.0,4.2100,2.9800,8.0088
48750.0,4.0600,3.0200,8.0088
48800.0,4.2900,3.1100,8.0769
48850.0,4.4400,3.0200,7.9679
48900.0,4.4400,3.0200,7.9270
48950.0,4.4000,3.1100,7.9679
49000.0,4.3700,2.9600,8.0088
49050.0,4.2500,2.9800,7.9679
49100.0,4.2500,3.0600,8.1177
49150.0,4.2500,2.9600,8.0769
49200.0,4.3300,2.9800,8.0769
49250.0,4.3300,3.0600,7.9270
49300.0,4.2900,3.1500,8.0769
49350.0,4.2900,2.9100,8.1177
49400.0,4.1800,2.9100,7.9270
49450.0,4.8200,3.3400,8.2403
49500.0,3.5700,2.9100,8.0496
49550.0,4.3300,3.4900,8.1586
49600.0,4.3300,3.1100,7.9679
49650.0,4.2500,2.8300,8.0769
49700.0,4.1000,2.8300,7.7772
49750.0,4.1400,3.1100,8.1586
49800.0,4.2500,2.9600,7.9270
49850.0,4.3700,3.2600,8.0088
49900.0,4.4400,2.9800,8.0496
49950.0,4.4000,3.0200,8.0088
50000.0,4.3700,2.9800,8.0088
50050.0,4.3300,3.0600,8.0088
50100.0,4.3700,3.2600,8.0769
50150.0,4.2900,3.0200,7.8862
50200.0,4.1400,2.8300,8.0769
50250.0,4.2500,3.0200,8.0496
50300.0,4.3700,3.0600,7.9679
50350.0,4.3300,3.1700,8.0769
50400.0,4.1400,3.1500,7.9270
50450.0,4.5200,2.9800,8.4991
50500.0,4.2100,2.5300,7.4640
50550.0,4.2500,3.6000,8.2403
50600.0,4.2900,2.7200,8.1177
50650.0,4.2100,3.0600,7.7772
50700.0,4.3700,2.9800,8.0088
50750.0,4.2900,3.1100,8.0496
50800.0,4.5200,3.0600,7.9679
50850.0,4.2900,2.9800,7.9679
50900.0,4.2900,3.1500,8.0088
50950.0,4.3300,3.0200,7.9270
51000.0,4.3300,3.0600,8.0496
51050.0,4.3300,3.0200,8.0088
51100.0,4.2900,3.0600,7.9679
51150.0,4.3300,3.0600,8.0088
51200.0,4.3300,3.1500,8.0088
51250.0,4.3300,3.0600,7.9679
51300.0,4.3700,2.9600,8.0088
51350.0,4.2100,3.1100,8.0088
51400.0,4.3700,3.1100,8.0088
51450.0,4.3700,3.1100,8.0088
51500.0,4.3700,3.0200,7.9679
51550.0,4.2100,3.0200,8.0088
51600.0,4.2500,2.9800,7.9679
51650.0,4.2900,2.9800,8.0088
51700.0,4.2900,2.9800,8.0496
51750.0,4.4400,3.0600,8.0088
51800.0,4.4000,3.1100,7.9679
51850.0,4.3300,3.2100,8.0496
51900.0,4.1800,3.0200,8.0769
51950.0,4.1400,3.0200,8.0496
52000.0,4.3300,2.8700,8.0088
52050.0,4.3300,2.9100,8.0088
52100.0,4.3700,2.9800,8.0769
52150.0,4.4000,3.1100,8.0496
52200.0,4.3300,3.0200,8.0496
52250.0,4.2500,2.9800,8.0088
52300.0,4.3700,3.0600,8.0496
52350.0,4.2500,2.9600,7.9679
52400.0,4.2900,2.9800,8.0769
52450.0,4.3300,3.0600,8.1177
52500.0,4.3300,3.1100,8.0496
52550.0,4.2900,3.0200,8.0769
52600.0,4.1800,2.9800,8.0769
52650.0,4.2500,3.0600,8.0769
52700.0,4.3300,3.0600,8.0088
52750.0,4.2900,3.0600,7.9679
52800.0,4.3300,2.9800,8.0088
52850.0,4.2900,3.0200,7.9679
52900.0,4.2900,3.0200,8.0088
52950.0,4.2500,3.0600,8.0496
53000.0,4.2500,3.0200,8.1177
53050.0,4.7900,3.1500,7.9679
53100.0,3.9100,3.0600,8.3084
53150.0,4.2900,3.0200,7.8181
53200.0,4.2900,3.0600,8.0769
53250.0,4.2500,2.9800,8.0769
53300.0,4.2100,3.0200,8.0088
53350.0,4.3700,3.0600,8.1177
53400.0,4.4800,3.0600,7.9679
53450.0,4.3300,3.0200,8.0088
53500.0,4.3300,3.0600,8.0496
53550.0,4.2900,3.0600,8.0496
53600.0,4.4000,3.0600,8.0088
53650.0,4.3300,3.0600,7.9270
53700.0,4.3300,3.0600,8.0496
53750.0,4.4400,3.0600,7.9270
53800.0,4.3300,3.0600,7.9679
53850.0,4.2900,2.9800,7.8862
53900.0,4.4800,3.2100,7.9679
53950.0,4.1400,2.9600,7.9270
54000.0,4.3700,3.1100,8.1177
54050.0,4.3700,3.1100,8.1177
54100.0,4.4800,3.1100,7.8862
54150.0,4.5200,3.0600,8.0088
54200.0,4.2500,3.0600,8.0088
54250.0,4.3300,3.1500,7.9679
54300.0,4.4000,3.0200,7.9270
54350.0,4.4400,3.0200,7.9679
54400.0,4.3300,3.0600,8.0088
54450.0,4.3700,3.0600,8.0088
54500.0,4.4400,3.1100,7.9679
54550.0,4.4400,3.1500,8.0088
54600.0,4.3700,3.0200,8.0088
54650.0,4.3700,3.0200,8.0088
54700.0,4.4800,3.1500,7.8862
54750.0,4.3700,3.1100,7.8862
54800.0,4.3300,3.0200,8.0088
54850.0,4.4000,3.0600,8.0769
54900.0,4.3700,2.9600,7.8862
54950.0,4.2900,3.1500,8.0496
55000.0,4.2500,3.0200,8.0088
55050.0,4.3300,3.0200,8.0496
55100.0,4.3700,2.9800,8.0088
55150.0,4.3300,3.0200,8.0088
55200.0,4.2900,3.0600,8.0088
55250.0,4.3300,2.9800,8.0088
55300.0,4.4000,3.0200,7.9679
55350.0,4.3300,3.0600,7.9679
55400.0,4.3300,3.1100,8.0088
55450.0,4.2900,3.0200,8.0496
55500.0,4.2900,2.9600,8.0088
55550.0,4.4000,3.0600,8.0088
55600.0,4.4000,3.0600,7.9679
55650.0,4.3300,3.1100,8.0496
55700.0,4.3300,3.0600,7.9679
55750.0,4.3300,3.0600,7.9679
55800.0,4.3700,3.0600,7.9679
55850.0,4.3700,3.0200,8.0496
55900.0,4.3700,3.0200,8.0088
55950.0,4.3700,3.0200,8.0088
56000.0,4.2900,3.1500,8.0088
56050.0,4.2900,3.0600,8.0088
56100.0,4.2900,3.0600,8.0088
56150.0,4.3700,3.0600,8.0088
56200.0,4.3300,3.1100,7.9679
56250.0,4.3700,3.0600,8.0088
56300.0,4.3700,3.0200,8.0496
56350.0,4.2900,3.0200,8.0496
56400.0,4.2900,3.1100,7.9270
56450.0,4.2900,3.1500,8.0088
56500.0,4.3300,3.0200,8.0088
56550.0,4.3700,3.1500,8.0496
56600.0,4.4000,2.9800,7.8589
56650.0,4.2500,3.0200,8.0496
56700.0,4.2500,3.1100,8.0496
56750.0,4.4800,3.1100,7.9679
56800.0,4.4800,3.1500,7.9270
56850.0,4.2500,2.9800,8.0496
56900.0,4.3300,3.1100,7.9679
56950.0,4.3700,3.1100,7.9679
57000.0,4.3300,2.8700,8.0088
57050.0,4.3700,3.1100,8.0088
57100.0,4.3700,3.1700,7.9679
57150.0,4.3300,3.1100,7.9270
57200.0,4.3700,2.9100,8.1177
57250.0,4.2900,3.0600,7.9270
57300.0,4.3700,3.2100,7.9679
57350.0,4.4400,3.1100,8.0496
57400.0,4.4000,2.9800,8.0088
57450.0,4.2500,2.9600,7.9679
57500.0,4.2500,3.1100,7.8862
57550.0,4.4000,3.1700,8.0496
57600.0,4.3300,3.0200,8.0088
57650.0,4.3300,2.9800,8.0088
57700.0,4.2900,3.0600,7.9270
57750.0,4.4400,3.0600,8.0088
57800.0,4.4400,3.0600,7.9270
57850.0,4.4000,3.1100,8.0088
57900.0,4.3700,3.1100,7.9679
57950.0,4.3700,3.1100,7.9270
58000.0,4.3700,3.0600,7.9679
58050.0,4.3700,3.0600,7.9679
58100.0,4.4400,2.9800,7.9679
58150.0,4.4400,3.0600,7.9679
58200.0,4.4400,3.2600,8.0496
58250.0,4.4000,3.0200,7.9679
58300.0,4.4000,2.8300,7.9679
58350.0,4.4000,2.9600,7.9679
58400.0,4.2900,3.1700,7.8862
58450.0,4.2900,3.2600,8.1177
58500.0,4.3700,2.9100,7.8862
58550.0,4.4800,2.9600,7.9679
58600.0,4.4800,3.1500,7.9270
58650.0,4.2500,3.2600,8.0769
58700.0,4.1800,2.9800,7.8862
58750.0,4.2900,2.8700,7.8862
58800.0,4.6000,3.1100,7.8862
58850.0,4.6300,3.1100,7.8181
58900.0,4.5200,3.2100,7.9270
58950.0,4.4800,3.1100,7.8862
59000.0,4.3300,2.9100,8.0088
59050.0,4.3300,2.9100,8.0088
59100.0,4.4800,3.1700,7.9679
59150.0,4.2500,3.1700,8.0496
59200.0,4.2900,2.9800,7.8862
59250.0,4.2500,3.1500,8.0496
59300.0,4.3700,3.0600,7.9679
59350.0,4.4000,3.1100,8.0088
59400.0,4.4000,3.0200,7.9270
59450.0,4.3700,3.1100,7.9679
59500.0,4.3300,3.1500,8.0088
59550.0,4.3700,3.0600,7.9270
59600.0,4.3700,3.0600,7.9679
59650.0,4.3700,3.0600,7.9679
59700.0,4.3300,3.2100,8.0088
59750.0,4.4000,2.9800,7.9270
59800.0,4.3300,3.0600,7.9679
59850.0,4.2900,3.0600,8.0088
59900.0,4.2900,3.1100,8.0088
59950.0,4.4400,3.1500,7.9679
60000.0,4.2500,2.9600,7.9679
60050.0,4.3300,3.1700,8.0769
60100.0,4.3700,2.9800,7.8862
60150.0,4.3700,3.1500,8.0088
60200.0,4.4400,3.0200,7.9270
60250.0,4.2500,2.9800,7.8589
60300.0,4.3700,3.1100,8.0769
60350.0,4.4800,3.0600,8.0496
60400.0,4.4000,3.1100,7.9679
60450.0,4.1400,2.8700,8.0088
60500.0,4.2500,3.1100,8.0769
60550.0,4.2900,3.1100,7.9679
60600.0,4.2100,3.1500,7.9270
60650.0,4.3300,2.8300,8.0088
60700.0,4.3300,2.9800,8.0496
60750.0,4.4400,3.3000,8.0496
60800.0,4.2900,2.9600,8.0088
60850.0,4.2900,2.9600,8.0088
60900.0,4.2100,3.1100,8.0496
60950.0,4.1400,3.2100,8.0088
61000.0,4.2100,3.0200,7.9679
61050.0,4.2100,3.0600,7.9679
61100.0,4.3300,3.0600,8.1995
61150.0,4.3300,3.0200,8.0769
61200.0,4.2500,2.9800,8.0769
61250.0,4.2500,3.0600,8.0088
61300.0,4.2900,3.0600,8.0496
61350.0,4.2900,3.0600,8.0496
61400.0,4.2100,3.1100,8.0496
61450.0,4.2100,3.1100,8.0769
61500.0,4.1800,3.0200,7.9679
61550.0,4.2500,3.0200,8.0496
61600.0,4.2100,3.0600,8.0088
61650.0,4.2100,3.0600,8.0769
61700.0,4.2100,3.0200,8.0496
61750.0,4.2500,3.0600,8.0496
61800.0,4.2100,3.0600,8.1177
61850.0,4.2100,3.0600,8.0496
61900.0,4.2100,3.1100,8.1177
61950.0,4.2100,3.0600,8.0769
62000.0,4.1800,3.0200,8.0496
62050.0,4.2100,3.0600,8.0769
62100.0,4.2100,3.0600,8.0088
62150.0,4.2100,3.0600,8.0769
62200.0,4.2500,3.0600,8.0496
62250.0,4.2500,3.0200,8.0769
62300.0,4.2500,3.0600,8.1177
62350.0,4.2100,3.0600,8.0496
62400.0,4.2500,3.0600,8.0769
62450.0,4.2500,3.0600,8.0496
62500.0,4.2500,3.0600,8.0496
62550.0,4.2900,3.1100,8.0769
62600.0,4.2500,3.1500,8.0088
62650.0,4.2900,3.1100,7.9679
62700.0,4.2500,2.9600,8.0088
62750.0,4.1800,3.0600,8.0769
62800.0,4.2900,3.1100,7.9679
62850.0,4.2900,3.1100,8.0088
62900.0,4.2500,3.1500,7.9270
62950.0,4.2900,3.1100,8.0088
63000.0,4.2100,3.1100,8.0088
63050.0,4.2500,3.0600,8.0088
63100.0,4.2900,3.1100,8.0088
63150.0,4.2100,3.0600,8.0088
63200.0,4.2100,3.0600,8.0496
63250.0,4.2900,3.1100,8.0088
63300.0,4.2500,3.0600,8.0496
63350.0,4.2500,3.1100,8.0088
63400.0,4.2100,3.0600,8.0496
63450.0,4.2500,3.1100,8.0088
63500.0,4.2500,3.0600,8.0088
63550.0,4.2500,3.0600,8.0088
63600.0,4.2100,3.1100,8.0088
63650.0,4.2100,3.1100,8.0088
63700.0,4.2100,3.1100,8.0496
63750.0,4.2500,3.1100,8.0769
63800.0,4.2500,3.0600,8.0496
63850.0,4.2500,3.0600,8.0496
63900.0,4.2500,3.1100,8.0088
63950.0,4.2900,3.0600,8.0496
64000.0,4.2500,3.0600,8.0088
64050.0,4.2500,3.1100,8.0088
64100.0,4.2500,3.1100,8.0088
64150.0,4.2500,3.1100,8.0496
64200.0,4.2900,3.1100,8.0088
64250.0,4.2900,3.1100,8.0088
64300.0,4.2100,3.0600,8.0496
64350.0,4.2100,3.1500,8.0496
64400.0,4.2100,3.0600,7.9679
64450.0,4.2900,3.1100,8.0496
64500.0,4.2500,3.1100,8.0088
64550.0,4.2500,3.1100,8.0496
64600.0,4.2500,3.0600,8.0496
64650.0,4.2100,3.0600,8.0769
64700.0,4.2500,3.1100,8.0088
64750.0,4.2100,3.1100,8.0496
64800.0,4.2500,3.1100,8.0496
64850.0,4.2500,3.1100,8.0088
64900.0,4.2500,3.0600,8.0088
64950.0,4.2100,3.0600,8.0496
65000.0,4.2500,3.0600,8.0769
65050.0,4.2100,3.1100,8.0496
65100.0,4.2100,3.1100,8.0496
65150.0,4.2500,3.0600,8.0769
65200.0,4.2500,3.1100,8.0496
65250.0,4.2100,3.0600,8.0496
65300.0,4.2500,3.0600,8.0088
65350.0,4.2500,3.0200,8.0769
65400.0,4.2500,3.1100,8.1177
65450.0,4.2100,3.0600,8.0496
65500.0,4.1400,3.0200,8.0496
65550.0,4.1800,3.0600,8.0496
65600.0,4.1800,3.0600,8.0769
65650.0,4.2100,3.0200,8.0496
65700.0,4.2100,3.0600,8.0769
65750.0,4.2500,3.0600,8.0769
65800.0,4.2100,3.0600,8.0769
65850.0,4.2100,3.0200,8.0769
65900.0,4.1800,3.0600,8.0769
65950.0,4.2500,3.1100,8.0769
66000.0,4.2100,3.0600,8.0496
66050.0,4.2100,3.0600,8.0769
66100.0,4.2100,3.0600,8.0769
66150.0,4.2100,3.0600,8.1177
66200.0,4.1800,3.0600,8.0769
66250.0,4.2100,3.0600,8.0496
66300.0,4.2100,3.0200,8.0769
66350.0,4.2500,3.1100,8.0496
66400.0,4.2900,3.0200,8.0769
66450.0,4.5200,3.1700,8.1586
66500.0,4.2500,3.0200,7.7772
66550.0,4.0200,3.1500,8.2403
66600.0,4.6700,3.1700,8.1995
66650.0,4.4400,3.0200,7.7772
66700.0,4.4800,3.1100,8.1177
66750.0,4.2100,3.1700,7.9679
66800.0,4.4000,2.9100,8.0088
66850.0,4.0600,2.4900,7.7772
66900.0,4.0600,2.9100,8.0088
66950.0,4.5200,3.2100,8.2403
67000.0,4.6700,3.0200,7.9270
67050.0,4.6700,3.0200,7.9270
67100.0,4.1400,2.8700,8.0088
67150.0,4.4800,3.1500,8.0496
67200.0,4.5200,3.1100,7.9679
67250.0,4.2900,2.7900,8.0769
67300.0,4.2500,2.9600,8.0088
67350.0,4.3700,3.0600,8.0088
67400.0,4.5200,2.9600,7.9679
67450.0,4.4000,2.8700,7.9679
67500.0,4.5600,2.9600,8.1995
67550.0,4.2100,2.8300,7.9679
67600.0,4.3300,3.1100,7.9679
67650.0,4.4000,3.0200,8.0496
67700.0,4.4000,2.9800,7.9270
67750.0,4.2900,2.9100,7.9679
67800.0,4.4000,3.0200,8.0769
67850.0,4.4800,3.0200,8.0088
67900.0,4.3700,2.9600,7.9679
67950.0,4.3300,2.9800,8.0088
68000.0,4.4000,2.9800,7.9270
68050.0,4.3700,2.9600,8.0496
68100.0,4.3300,3.0200,8.0088
68150.0,4.3700,2.9600,8.0088
68200.0,4.3300,3.0200,8.0088
68250.0,4.3300,3.0600,8.0496
68300.0,4.2900,2.9800,8.0496
68350.0,4.2900,2.9800,7.9679
68400.0,4.3300,2.9800,8.0496
68450.0,4.2900,2.9800,8.0496
68500.0,4.2900,2.9800,8.0769
68550.0,4.2900,2.9800,8.0088
68600.0,4.2900,2.9800,7.9679
68650.0,4.3300,2.9600,7.9679
68700.0,4.2900,3.0600,8.0088
68750.0,4.4000,3.1700,8.0769
68800.0,4.3700,2.8300,8.0496
68850.0,3.9100,3.0200,7.9679
68900.0,4.2500,3.0200,8.2403
68950.0,4.3300,2.9100,7.9270
69000.0,4.3300,2.9800,8.0769
69050.0,4.2500,3.1500,8.0769
69100.0,4.3300,3.1500,8.2403
69150.0,4.3300,3.0600,8.0088
69200.0,4.2900,3.0600,8.0769
69250.0,4.2500,3.0600,8.0088
69300.0,4.2100,3.0200,8.0088
69350.0,4.2100,3.0600,8.0088
69400.0,4.2500,3.0200,8.0088
69450.0,4.3300,3.1500,8.0769
69500.0,4.2500,3.1500,8.0088
69550.0,4.3300,3.1100,8.0088
69600.0,4.2900,3.0600,8.0496
69650.0,4.2500,3.1100,8.0496
69700.0,4.3300,3.1500,8.0496
69750.0,4.2900,3.1500,7.9679
69800.0,4.2900,3.1100,8.0769
69850.0,4.2100,3.1100,8.0088
69900.0,4.2500,3.0600,8.0496
69950.0,4.2100,3.1100,8.0088
70000.0,4.2500,3.0600,7.9679
70050.0,4.3300,3.1100,8.0496
70100.0,4.2500,3.1500,8.0088
70150.0,4.2900,3.1100,8.0496
70200.0,4.2100,3.0600,7.9679
70250.0,4.2900,3.0600,8.0088
70300.0,4.2500,3.0600,8.0496
70350.0,4.2500,3.1500,8.0088
70400.0,4.2900,3.1100,8.0496
70450.0,4.2900,3.1100,8.0496
70500.0,4.2900,3.1100,8.0496
70550.0,4.2500,3.1100,7.9679
70600.0,4.2100,3.1500,8.0088
70650.0,4.2500,3.1100,7.9679
70700.0,4.2900,3.1500,8.0496
70750.0,4.1800,3.1100,8.0496
70800.0,4.2100,3.1100,8.0088
70850.0,4.1800,3.1500,8.0088
70900.0,4.2900,3.1100,8.0088
70950.0,4.3300,3.1500,7.9679
71000.0,4.2500,3.0600,8.0496
71050.0,4.2500,3.1100,8.0769
71100.0,4.2500,3.1500,8.0496
71150.0,4.2900,3.1100,8.0088
71200.0,4.2100,3.0600,8.0088
71250.0,4.1800,2.9800,8.0088
71300.0,4.1800,3.0600,8.0496
71350.0,4.3300,3.1500,8.0088
71400.0,4.3300,3.0200,7.9679
71450.0,4.2900,3.1100,7.9679
71500.0,4.3300,3.1500,8.1586
71550.0,4.1800,3.0600,7.8181
71600.0,4.1800,3.1100,8.0769
71650.0,4.1800,3.1100,8.0769
71700.0,4.1400,2.9800,8.0769
71750.0,4.1400,3.0200,8.0496
71800.0,4.1800,3.0600,7.9270
71850.0,4.2900,3.0600,8.1586
71900.0,4.2900,3.0600,8.1586
71950.0,4.3700,3.1100,8.0769
72000.0,4.2500,3.0600,7.9679
72050.0,4.2500,3.1100,8.1177
72100.0,4.2500,3.0600,8.0496
72150.0,4.2100,3.0600,8.0496
72200.0,4.2100,3.0600,7.9679
72250.0,4.3700,3.1100,7.9679
72300.0,4.3700,3.0600,8.0088
72350.0,4.1400,3.1100,8.0769
72400.0,4.2900,3.0200,8.0088
72450.0,4.1800,3.1700,7.8589
72500.0,4.4400,3.0200,8.3901
72550.0,4.0200,2.7200,7.6274
72600.0,4.3300,3.3800,8.4310
72650.0,4.1800,2.9100,7.6683
72700.0,4.2500,3.1500,8.1995
72750.0,4.1000,2.9600,7.9679
72800.0,4.2900,3.3400,7.9679
72850.0,4.4400,2.8700,8.0496
72900.0,4.1000,3.0200,8.0769
72950.0,4.3700,3.0200,8.0088
73000.0,4.1800,3.1500,8.0088
73050.0,4.2100,3.1100,8.0769
73100.0,4.1800,3.0200,8.0769
73150.0,4.2100,3.1100,8.1586
73200.0,4.4000,2.9100,7.9270
73250.0,4.3300,2.9800,8.0088
73300.0,4.2100,3.0600,8.1177
73350.0,4.2100,3.0600,8.1177
73400.0,4.2500,3.1100,8.0088
73450.0,4.1800,3.1100,8.0496
73500.0,4.1800,3.0200,8.0769
73550.0,4.3300,2.9600,8.0496
73600.0,4.2500,2.9600,8.0496
73650.0,4.2500,3.0600,8.0496
73700.0,4.2100,3.0200,8.0496
73750.0,4.2500,3.0200,8.0769
73800.0,4.2900,3.0200,8.0496
73850.0,4.2900,2.9800,8.0496
73900.0,4.3300,3.0200,8.1177
73950.0,4.2900,3.0200,8.0496
74000.0,4.2100,3.0600,8.0088
74050.0,4.2500,3.0600,8.0769
74100.0,4.2500,2.9600,8.0496
74150.0,4.3300,2.9800,8.0496
74200.0,4.2900,3.0200,8.0088
74250.0,4.1400,3.0600,8.1586
74300.0,4.2500,2.9600,8.1177
74350.0,4.2100,2.9800,8.1177
74400.0,4.2500,2.9600,8.0769
74450.0,4.2900,2.9800,8.0496
74500.0,4.2500,3.0200,8.0496
74550.0,4.1400,3.0600,8.1177
74600.0,4.1000,3.0200,8.1586
74650.0,4.2900,3.1100,8.0769
74700.0,4.2900,2.8700,7.8862
74750.0,4.0600,3.0600,8.1586
74800.0,4.2900,2.8300,7.9679
74850.0,4.2900,3.2100,8.0088
74900.0,4.2500,2.9800,7.8862
74950.0,4.4000,3.0200,8.1177
75000.0,4.2100,2.8700,8.0496
75050.0,4.1400,3.1100,8.0496
75100.0,4.2900,3.0600,8.1177
75150.0,4.3300,3.0600,8.0496
75200.0,4.2900,3.1100,8.0769
75250.0,4.1400,3.0600,8.1177
75300.0,4.0200,3.1100,8.0769
75350.0,4.1400,2.9800,8.0769
75400.0,4.2500,3.0600,8.0769
75450.0,4.2900,3.1500,8.0769
75500.0,4.2100,3.0200,8.0769
75550.0,4.2100,3.0600,8.1177
75600.0,4.1800,2.9800,8.0496
75650.0,4.2100,3.1500,8.0496
75700.0,4.1800,3.0600,8.0496
75750.0,4.1000,2.9600,8.1586
75800.0,4.0200,2.9800,8.1586
75850.0,4.1800,3.1700,8.0088
75900.0,4.3700,3.1700,8.0088
75950.0,4.3300,3.1100,8.0496
76000.0,4.1400,2.9100,8.1177
76050.0,4.1000,2.9800,8.1177
76100.0,4.2900,3.0200,8.0496
76150.0,4.2500,3.0200,8.0088
76200.0,4.2500,3.1100,8.0769
76250.0,4.2100,3.0600,8.0496
76300.0,4.2100,3.0200,8.0088
76350.0,4.2900,3.0600,8.0769
76400.0,4.1800,3.0600,8.0769
76450.0,4.2100,2.9800,8.0496
76500.0,4.2100,2.9800,8.0769
76550.0,4.2100,3.0600,8.0496
76600.0,4.2500,2.9800,8.0496
76650.0,4.2100,3.0600,8.0769
76700.0,4.2100,2.9800,8.0769
76750.0,4.2100,3.0200,8.0496
76800.0,4.2100,3.0600,8.0496
76850.0,4.1800,3.0200,8.1177
76900.0,4.1400,3.0200,8.0769
76950.0,4.1800,3.0200,8.1177
77000.0,4.2100,3.0200,8.0496
77050.0,4.2500,3.0200,8.0769
77100.0,4.1800,2.9800,8.1177
77150.0,4.2100,3.0200,8.1177
77200.0,4.2500,3.0200,8.0496
77250.0,4.2100,3.1100,8.0769
77300.0,4.2100,3.1100,8.0769
77350.0,4.1800,2.9800,8.0769
77400.0,4.1000,3.0200,8.0496
77450.0,4.2100,3.0600,8.0769
77500.0,4.2500,3.0600,8.0496
77550.0,4.2100,3.0600,8.0769
77600.0,4.1800,3.0600,8.0496
77650.0,4.1400,3.0200,8.0769
77700.0,4.1800,3.0200,8.0496
77750.0,4.1800,3.0200,8.0496
77800.0,4.1800,3.0200,8.0769
77850.0,4.2100,3.0600,8.0496
77900.0,4.1800,3.0200,8.0769
77950.0,4.1800,2.9800,8.1177
78000.0,4.1400,3.0200,8.0769
78050.0,4.2100,3.0200,8.0769
78100.0,4.2100,3.0200,8.0496
78150.0,4.1800,3.0600,8.0088
78200.0,4.1800,3.0200,8.0496
78250.0,4.2100,3.0200,8.0496
78300.0,4.2100,3.1100,8.0088
78350.0,4.2100,3.1100,8.0496
78400.0,4.1800,3.1100,8.0769
78450.0,4.2100,3.1100,8.1177
78500.0,4.1800,3.0200,8.0496
78550.0,4.1400,3.0600,8.0769
78600.0,4.1400,2.9800,8.0769
78650.0,4.2500,3.0600,8.0496
78700.0,4.2500,3.0200,8.0496
78750.0,4.1400,3.0600,8.0769
78800.0,4.2500,3.0200,8.0496
78850.0,4.2500,3.1100,8.0088
78900.0,4.1800,3.0200,8.0496
78950.0,4.1800,3.0200,8.1177
79000.0,4.1800,3.0200,8.0769
79050.0,4.2500,3.1500,8.0496
79100.0,4.1800,3.0600,8.0769
79150.0,4.0600,3.0200,8.1177
79200.0,4.1800,3.0200,8.1177
79250.0,4.2100,3.0600,8.0769
79300.0,4.1400,3.0600,8.0769
79350.0,4.1800,3.0200,8.0496
79400.0,4.1800,3.0600,8.1586
79450.0,4.1800,3.1100,8.0769
79500.0,4.1400,3.0200,8.0769
79550.0,4.1400,3.0200,8.0769
79600.0,4.1400,3.0200,8.0769
79650.0,4.1800,2.9600,8.0769
79700.0,4.3700,3.1100,8.0088
79750.0,4.2100,3.4900,8.1177
79800.0,4.3700,3.1100,8.1177
79850.0,4.4000,2.8300,8.0769
79900.0,4.2500,2.5600,7.6955
79950.0,4.0200,2.7900,8.0496
80000.0,4.1000,3.0600,8.2403
80050.0,4.2500,3.0600,7.9679
80100.0,4.4000,3.0200,8.0769
80150.0,4.2900,3.0200,8.0769
80200.0,4.1800,3.0200,8.1177
80250.0,4.2100,2.9800,8.0769
80300.0,4.2900,2.9800,8.0769
80350.0,4.2900,2.9800,8.0496
80400.0,4.2500,2.8700,8.0088
80450.0,4.2500,3.0200,8.0496
80500.0,4.2900,2.9100,8.0769
80550.0,4.2900,2.9800,8.0769
80600.0,4.2500,3.0600,8.0769
80650.0,4.2100,3.1100,8.0088
80700.0,4.2500,3.0200,8.0769
80750.0,4.1800,3.0200,8.0496
80800.0,4.1800,3.0200,7.9679
80850.0,4.2900,3.0200,8.0496
80900.0,4.2900,2.9800,7.9679
80950.0,4.2900,3.0200,8.0088
81000.0,4.3300,3.1100,8.0496
81050.0,4.3700,3.0600,8.0769
81100.0,4.2900,3.0600,8.0496
81150.0,4.2900,3.1100,8.0496
81200.0,4.2900,3.0600,8.0496
81250.0,4.3300,2.9800,8.0769
81300.0,4.2100,2.9600,8.0088
81350.0,4.3300,2.9800,8.0088
81400.0,4.3300,3.0200,7.9270
81450.0,4.2900,3.0200,8.0088
81500.0,4.2900,3.1500,8.0088
81550.0,4.3300,3.0600,8.0496
81600.0,4.3300,3.1100,8.0496
81650.0,4.2100,2.9800,8.0088
81700.0,4.2500,3.0200,8.0769
81750.0,4.2900,3.0200,8.0088
81800.0,4.4000,3.1100,7.9679
81850.0,4.2900,3.0200,8.0496
81900.0,4.2500,3.0600,8.0496
81950.0,4.2500,3.0200,8.0496
82000.0,4.2500,3.0200,8.0496
82050.0,4.2500,3.0200,8.0496
82100.0,4.2900,3.0200,8.0088
82150.0,4.2900,3.0200,8.0088
82200.0,4.2500,3.0200,8.0769
82250.0,4.2900,3.0200,8.0088
82300.0,4.2100,3.0600,8.0496
82350.0,4.2100,3.0200,8.0088
82400.0,4.2500,3.0200,8.0496
82450.0,4.3300,3.0600,8.0496
82500.0,4.3300,3.0200,8.0088
82550.0,4.1800,3.0600,8.1177
82600.0,4.2100,3.0200,8.0496
82650.0,4.1800,3.1100,8.1586
82700.0,4.1800,3.1100,8.1586
82750.0,4.5200,3.0200,8.0769
82800.0,4.4800,3.1700,8.0769
82850.0,4.4400,2.9100,8.0496
82900.0,4.4800,3.3800,7.8589
82950.0,4.1800,3.3800,7.9270
83000.0,4.1000,3.1500,7.7772
83050.0,4.0600,2.8700,7.7364
83100.0,4.2100,2.4500,7.9270
83150.0,4.4800,2.6800,8.4310
83200.0,6.4400,2.4500,6.3600
83250.0,6.4000,2.5300,6.4400
83300.0,6.3600,2.6000,6.4700
83350.0,6.4400,2.5600,6.5100
83400.0,6.5500,2.4900,6.5500
83450.0,6.5500,2.5600,6.4400
83500.0,6.4400,2.6000,6.4400
83550.0,6.3600,2.5600,6.4700
83600.0,6.2800,2.5300,6.4700
83650.0,6.3600,2.4900,6.4400
83700.0,6.3600,2.4500,6.5500
83750.0,6.4400,2.6000,6.5100
83800.0,6.5100,2.6400,6.4700
83850.0,6.4700,2.6000,6.5100
83900.0,6.4400,2.4900,6.4700
83950.0,6.3600,2.4500,6.5100
84000.0,6.3600,2.4500,6.4700
84050.0,6.4000,2.4900,6.4700
84100.0,6.3600,2.5600,6.4000
84150.0,6.4400,2.5300,6.5100
84200.0,6.4700,2.5300,6.5100
84250.0,6.4700,2.5300,6.5100
84300.0,6.4400,2.5300,6.4700
84350.0,6.4400,2.4900,6.4700
84400.0,6.4400,2.4900,6.4700
84450.0,6.4000,2.5300,6.4700
84500.0,6.4400,2.5300,6.5100
84550.0,6.4000,2.5300,6.4700
84600.0,6.4700,2.5300,6.4700
84650.0,6.4000,2.4900,6.4700
84700.0,6.4400,2.5300,6.4700
84750.0,6.4400,2.5300,6.4700
84800.0,6.4400,2.5300,6.4700
84850.0,6.4400,2.5300,6.4400
84900.0,6.4700,2.5300,6.4400
84950.0,6.4400,2.5300,6.4700
85000.0,6.4700,2.4900,6.4400
85050.0,6.4700,2.5300,6.4700
85100.0,6.5100,2.5300,6.4700
85150.0,6.5100,2.5600,6.4700
85200.0,6.4400,2.6000,6.4400
85250.0,6.4700,2.5600,6.4700
85300.0,6.4000,2.5600,6.3200
85350.0,6.5100,2.5600,6.4700
85400.0,6.4000,2.6000,6.3600
85450.0,6.5100,2.5600,6.4700
85500.0,6.4400,2.6000,6.4000
85550.0,6.4700,2.5300,6.4700
85600.0,6.5100,2.5600,6.4700
85650.0,6.4700,2.5300,6.4400
85700.0,6.4700,2.5300,6.4400
85750.0,6.4700,2.5300,6.4400
85800.0,6.4700,2.5300,6.4700
85850.0,6.4400,2.5300,6.4700
85900.0,6.4400,2.5300,6.4400
85950.0,6.4400,2.5300,6.4000
86000.0,6.5100,2.5300,6.4400
86050.0,6.4400,2.5600,6.4700
86100.0,6.5100,2.5600,6.4700
86150.0,6.4400,2.5600,6.4700
86200.0,6.4400,2.5300,6.4400
86250.0,6.4400,2.4900,6.4700
86300.0,6.4700,2.5300,6.4400
86350.0,6.4700,2.5600,6.4400
86400.0,6.4700,2.5600,6.4000
86450.0,6.5100,2.5600,6.4700
86500.0,6.4700,2.5300,6.4400
86550.0,6.4700,2.5300,6.4700
86600.0,6.4000,2.4900,6.4700
86650.0,6.4400,2.4900,6.4400
86700.0,6.4400,2.4900,6.4400
86750.0,6.4400,2.4900,6.4400
86800.0,6.4700,2.5300,6.4400
86850.0,6.4400,2.5300,6.4400
86900.0,6.4400,2.5300,6.4700
86950.0,6.4400,2.5600,6.4400
87000.0,6.4400,2.5300,6.4700
87050.0,6.4400,2.4900,6.4700
87100.0,6.4400,2.4900,6.4400
87150.0,6.4400,2.4900,6.4400
87200.0,6.4400,2.5600,6.4700
87250.0,6.4400,2.5300,6.5100
87300.0,6.4000,2.5300,6.4400
87350.0,6.4700,2.5300,6.4400
87400.0,6.4400,2.5300,6.4700
87450.0,6.4700,2.5300,6.4700
87500.0,6.4400,2.5300,6.4400
87550.0,6.4400,2.4900,6.4700
87600.0,6.4700,2.5300,6.4700
87650.0,6.4400,2.5300,6.4700
87700.0,6.4700,2.5300,6.5100
87750.0,6.4400,2.4900,6.5100
87800.0,6.4400,2.5300,6.4400
87850.0,6.4700,2.5300,6.4700
87900.0,6.4400,2.4900,6.4400
87950.0,6.4700,2.4900,6.5100
88000.0,6.4000,2.4500,6.4700
88050.0,6.4400,2.5600,6.4400
88100.0,6.3600,2.4900,6.4700
88150.0,6.4000,2.5300,6.4400
88200.0,6.4000,2.4900,6.5100
88250.0,6.4000,2.4900,6.4700
88300.0,6.4000,2.5300,6.4700
88350.0,6.4400,2.5300,6.4700
88400.0,6.4400,2.4900,6.5500
88450.0,6.4400,2.4500,6.5100
88500.0,6.4400,2.4900,6.5100
88550.0,6.4700,2.5300,6.5100
88600.0,6.4400,2.4900,6.4400
88650.0,6.4400,2.5300,6.5100
88700.0,6.4400,2.5300,6.4700
88750.0,6.4000,2.5300,6.4700
88800.0,6.4000,2.4900,6.4400
88850.0,6.4700,2.5300,6.4400
88900.0,6.4400,2.4900,6.4700
88950.0,6.4400,2.4900,6.4700
89000.0,6.4000,2.4900,6.4700
89050.0,6.4400,2.5300,6.4700
89100.0,6.4400,2.5300,6.4700
89150.0,6.4400,2.4900,6.4700
89200.0,6.4000,2.4900,6.4700
89250.0,6.4700,2.4900,6.4700
89300.0,6.4700,2.5300,6.4400
89350.0,6.4400,2.4500,6.4700
89400.0,6.4700,2.5300,6.5100
89450.0,6.4400,2.5300,6.4400
89500.0,6.4400,2.4900,6.4700
89550.0,6.4700,2.4900,6.4700
89600.0,6.4400,2.4900,6.4700
89650.0,6.4400,2.5300,6.4400
89700.0,6.4400,2.4900,6.4400
89750.0,6.4400,2.5300,6.4700
89800.0,6.4000,2.4900,6.4400
89850.0,6.4000,2.4900,6.4700
89900.0,6.4400,2.5300,6.4700
89950.0,6.4700,2.5600,6.4700
90000.0,6.4700,2.5300,6.4700
90050.0,6.4400,2.5300,6.5100
90100.0,6.4400,2.5300,6.4700
90150.0,6.4400,2.4900,6.4000
90200.0,6.4000,2.4900,6.4700
90250.0,6.4400,2.5300,6.4700
90300.0,6.4700,2.5300,6.4400
90350.0,6.4400,2.4900,6.4700
90400.0,6.4400,2.4900,6.5100
90450.0,6.4700,2.4900,6.4400
90500.0,6.4000,2.4500,6.4400
90550.0,6.4000,2.4900,6.4700
90600.0,6.4400,2.4900,6.5100
90650.0,6.4000,2.5300,6.4700
90700.0,6.4700,2.5300,6.4700
90750.0,6.4000,2.4900,6.5100
90800.0,6.3200,2.4500,6.5100
90850.0,6.3200,2.4100,6.4700
90900.0,6.3200,2.4100,6.4700
90950.0,6.3600,2.4500,6.5500
91000.0,6.4000,2.5300,6.5900
91050.0,6.3200,2.4500,6.5100
91100.0,6.3600,2.4500,6.5100
91150.0,6.4000,2.4900,6.5100
91200.0,6.3600,2.4900,6.4700
91250.0,6.3600,2.4900,6.5500
91300.0,6.4000,2.4900,6.5100
91350.0,6.4000,2.4500,6.4700
91400.0,6.3600,2.4900,6.5100
91450.0,6.3600,2.4900,6.5500
91500.0,6.3600,2.4900,6.5100
91550.0,6.3600,2.4500,6.5100
91600.0,6.3200,2.4900,6.4700
91650.0,6.4000,2.4900,6.5100
91700.0,6.3200,2.4900,6.4700
91750.0,6.4000,2.4500,6.5100
91800.0,6.3600,2.4500,6.4400
91850.0,6.3200,2.4500,6.4400
91900.0,6.4000,2.4900,6.4700
91950.0,6.3600,2.4900,6.5100
92000.0,6.4000,2.5300,6.5100
92050.0,6.3600,2.4900,6.5500
92100.0,6.4400,2.5300,6.4700
92150.0,6.4000,2.4900,6.4700
92200.0,6.3600,2.4900,6.4000
92250.0,6.4000,2.4900,6.5100
92300.0,6.3600,2.4900,6.5100
92350.0,6.3200,2.4500,6.4700
92400.0,6.3600,2.4900,6.4700
92450.0,6.4000,2.4900,6.5100
92500.0,6.4000,2.4900,6.5100
92550.0,6.4000,2.4900,6.5100
92600.0,6.3600,2.4900,6.5100
92650.0,6.4000,2.4900,6.5100
92700.0,6.3600,2.4500,6.5100
92750.0,6.4000,2.4900,6.4700
92800.0,6.3600,2.4500,6.5100
92850.0,6.3600,2.4900,6.4700
92900.0,6.3600,2.4900,6.5500
92950.0,6.3600,2.4900,6.4700
93000.0,6.3600,2.4900,6.5500
93050.0,6.3600,2.4900,6.5100
93100.0,6.4000,2.4900,6.5100
93150.0,6.3600,2.5300,6.4700
93200.0,6.4400,2.4500,6.4700
93250.0,6.4400,2.4900,6.4700
93300.0,6.4700,2.5300,6.4700
93350.0,6.4000,2.4900,6.4700
93400.0,6.5100,2.4900,6.4400
93450.0,6.4400,2.4900,6.4400
93500.0,6.4000,2.4900,6.4400
93550.0,6.4000,2.4500,6.4700
93600.0,6.4000,2.4500,6.4700
93650.0,6.4400,2.4900,6.4700
93700.0,6.4400,2.4900,6.5100
93750.0,6.4400,2.5300,6.5500
93800.0,6.4000,2.5300,6.4700
93850.0,6.4000,2.4900,6.4700
93900.0,6.4400,2.4900,6.4700
93950.0,6.4400,2.5300,6.4700
94000.0,6.4400,2.4900,6.4700
94050.0,6.4400,2.4900,6.4700
94100.0,6.4400,2.4900,6.4700
94150.0,6.4400,2.5300,6.4000
94200.0,6.4400,2.4900,6.4400
94250.0,6.5500,2.4900,6.5100
94300.0,6.4700,2.5300,6.4400
94350.0,6.4000,2.5300,6.4400
94400.0,6.4700,2.6000,6.4000
94450.0,6.4400,2.5600,6.5100
94500.0,6.4400,2.5300,6.4700
94550.0,6.4700,2.5300,6.4000
94600.0,6.4400,2.4900,6.4700
94650.0,6.4700,2.5300,6.5100
94700.0,6.4000,2.5300,6.4400
94750.0,6.4700,2.5300,6.4400
94800.0,6.4700,2.4900,6.4400
94850.0,6.4700,2.5300,6.4400
94900.0,6.4000,2.4900,6.4700
94950.0,6.4400,2.5300,6.4400
95000.0,6.4400,2.4900,6.4000
95050.0,6.4400,2.5300,6.4700
95100.0,6.4000,2.5300,6.4400
95150.0,6.4000,2.5300,6.4400
95200.0,6.4400,2.4900,6.4700
95250.0,6.4000,2.4900,6.4700
95300.0,6.4400,2.5300,6.4700
95350.0,6.4000,2.4900,6.4700
95400.0,6.4400,2.4900,6.4400
95450.0,6.4400,2.5300,6.5100
95500.0,6.4700,2.5300,6.4700
95550.0,6.4700,2.4500,6.4700
95600.0,6.4400,2.4900,6.4700
95650.0,6.4400,2.5300,6.4400
95700.0,6.4700,2.5300,6.5100
95750.0,6.4000,2.4900,6.4700
95800.0,6.4700,2.4900,6.5500
95850.0,6.4400,2.4500,6.4700
95900.0,6.4400,2.4900,6.4700
95950.0,6.4400,2.5300,6.4700
96000.0,6.4700,2.4900,6.5100
96050.0,6.4700,2.4900,6.4700
96100.0,6.4000,2.4500,6.4700
96150.0,6.5100,2.4900,6.5100
96200.0,6.4400,2.4900,6.4700
96250.0,6.4400,2.4900,6.5100
96300.0,6.4000,2.5300,6.4400
96350.0,6.4400,2.5600,6.4400
96400.0,6.4400,2.5300,6.4700
96450.0,6.4400,2.4900,6.4700
96500.0,6.4000,2.4900,6.4700
96550.0,6.3600,2.5300,6.4700
96600.0,6.3600,2.4900,6.4700
96650.0,6.4000,2.4900,6.5100
96700.0,6.3600,2.5300,6.5100
96750.0,6.4000,2.4900,6.4700
96800.0,6.4000,2.4900,6.5100
96850.0,6.3600,2.4900,6.4700
96900.0,6.3600,2.5300,6.5500
96950.0,6.3600,2.4900,6.5100
97000.0,6.3600,2.4500,6.5100
97050.0,6.3600,2.4900,6.5100
97100.0,6.3600,2.4500,6.5100
97150.0,6.4000,2.4900,6.5500
97200.0,6.3600,2.4900,6.5100
97250.0,6.3600,2.4900,6.5500
97300.0,6.3600,2.4900,6.4700
97350.0,6.4000,2.4900,6.4700
97400.0,6.4000,2.4500,6.4700
97450.0,6.4000,2.4500,6.4700
97500.0,6.2800,2.4900,6.5100
97550.0,6.3600,2.4100,6.4400
97600.0,6.3200,2.4900,6.4700
97650.0,6.4000,2.5300,6.5500
97700.0,6.3600,2.5300,6.5100
97750.0,6.3600,2.4900,6.5900
97800.0,6.3600,2.4500,6.5500
97850.0,6.4000,2.4500,6.5100
97900.0,6.4000,2.5300,6.4700
97950.0,6.3200,2.5300,6.5500
98000.0,6.3600,2.4900,6.5900
98050.0,6.3200,2.4900,6.4700
98100.0,6.3600,2.4900,6.5500
98150.0,6.3200,2.4500,6.5500
98200.0,6.3600,2.4500,6.5100
98250.0,6.4000,2.4900,6.5100
98300.0,6.3600,2.4900,6.5500
98350.0,6.3200,2.4500,6.4700
98400.0,6.3600,2.4900,6.5100
98450.0,6.3200,2.4900,6.5500
98500.0,6.2800,2.4500,6.5500
98550.0,6.3600,2.4900,6.5500
98600.0,6.3200,2.4500,6.5100
98650.0,6.3200,2.4500,6.5500
98700.0,6.3200,2.4500,6.5100
98750.0,6.3600,2.4500,6.5100
98800.0,6.3200,2.4500,6.5500
98850.0,6.3200,2.4500,6.5100
98900.0,6.3200,2.4900,6.5100
98950.0,6.3200,2.4500,6.5100
99000.0,6.3600,2.5300,6.5100
99050.0,6.3600,2.4500,6.5100
99100.0,6.3200,2.5300,6.5100
99150.0,6.3600,2.4900,6.5500
99200.0,6.3200,2.4900,6.4700
99250.0,6.3600,2.4900,6.5100
99300.0,6.3600,2.4900,6.5500
99350.0,6.4000,2.4900,6.5500
99400.0,6.3200,2.4900,6.5500
99450.0,6.3600,2.4900,6.4700
99500.0,6.4000,2.4900,6.5100
99550.0,6.3600,2.4900,6.5100
99600.0,6.4000,2.5300,6.4700
99650.0,6.3600,2.4900,6.4700
99700.0,6.3600,2.4900,6.4700
99750.0,6.4000,2.4900,6.5500
99800.0,6.4000,2.4900,6.4700
99850.0,6.3200,2.4900,6.5100
99900.0,6.3600,2.5300,6.5500
99950.0,6.3600,2.4900,6.5100
100000.0,6.4000,2.5300,6.5100
100050.0,6.3200,2.4900,6.4700
100100.0,6.4000,2.4900,6.5500
100150.0,6.3600,2.5300,6.5100
100200.0,6.3600,2.4900,6.5100
100250.0,6.4000,2.5300,6.5100
100300.0,6.4000,2.4900,6.4700
100350.0,6.4000,2.4900,6.5100
100400.0,6.4000,2.4900,6.5100
100450.0,6.3600,2.5300,6.4700
100500.0,6.3600,2.4900,6.4700
100550.0,6.4000,2.4900,6.5100
100600.0,6.4000,2.5300,6.4400
100650.0,6.3600,2.4900,6.5100
100700.0,6.4000,2.4900,6.4700
100750.0,6.3600,2.4900,6.5100
100800.0,6.4000,2.4900,6.5100
100850.0,6.4700,2.4900,6.4700
100900.0,6.4700,2.5300,6.5100
100950.0,6.4700,2.5300,6.5100
101000.0,6.4700,2.5300,6.5100
101050.0,6.4700,2.4900,6.4400
101100.0,6.4400,2.5600,6.4700
101150.0,6.4400,2.4900,6.5100
101200.0,6.4700,2.5300,6.4700
101250.0,6.4700,2.5300,6.4700
101300.0,6.5100,2.4900,6.5100
101350.0,6.4700,2.4900,6.4700
101400.0,6.4400,2.4900,6.5100
101450.0,6.4400,2.4900,6.5100
101500.0,6.4400,2.4900,6.4400
101550.0,6.4400,2.4900,6.5100
101600.0,6.4400,2.5300,6.4700
101650.0,6.4700,2.5300,6.5500
101700.0,6.4700,2.5300,6.4700
101750.0,6.4400,2.4900,6.4700
101800.0,6.4700,2.4500,6.5100
101850.0,6.4700,2.5300,6.4700
101900.0,6.5100,2.5600,6.5100
101950.0,6.4400,2.4900,6.5100
102000.0,6.4000,2.5300,6.5100
102050.0,6.4400,2.5300,6.4400
102100.0,6.4700,2.4900,6.5100
102150.0,6.4400,2.4500,6.5100
102200.0,6.4000,2.4900,6.5100
102250.0,6.4700,2.5300,6.5100
102300.0,6.4700,2.4900,6.5100
102350.0,6.4700,2.5300,6.4700
102400.0,6.5100,2.5300,6.4700
102450.0,6.4700,2.4500,6.4700
102500.0,6.4000,2.4900,6.5100
102550.0,6.4000,2.5300,6.4700
102600.0,6.4400,2.5300,6.5100
102650.0,6.4000,2.5300,6.4700
102700.0,6.4700,2.5300,6.5500
102750.0,6.4400,2.5300,6.5100
102800.0,6.4400,2.5300,6.5100
102850.0,6.4400,2.5300,6.5100
102900.0,6.4400,2.5300,6.5100
102950.0,6.4400,2.5300,6.4700
103000.0,6.4400,2.4900,6.5100
103050.0,6.4400,2.5300,6.5100
103100.0,6.4000,2.5300,6.5100
103150.0,6.4000,2.4900,6.4700
103200.0,6.4000,2.5300,6.4700
103250.0,6.4700,2.5300,6.5100
103300.0,6.4000,2.5300,6.4400
103350.0,6.4400,2.5300,6.4700
103400.0,6.4000,2.4900,6.4700
103450.0,6.4400,2.5300,6.5100
103500.0,6.4400,2.4900,6.5100
103550.0,6.4400,2.4900,6.4700
103600.0,6.4400,2.4500,6.4400
103650.0,6.4400,2.5300,6.4400
103700.0,6.3600,2.5300,6.5100
103750.0,6.4000,2.4900,6.4700
103800.0,6.4000,2.4900,6.5100
103850.0,6.4700,2.5300,6.4700
103900.0,6.4400,2.5300,6.5100
103950.0,6.4700,2.5300,6.5100
104000.0,6.4700,2.5300,6.5100
104050.0,6.4400,2.4500,6.4400
104100.0,6.4400,2.4900,6.4700
104150.0,6.4700,2.5600,6.4400
104200.0,6.5500,2.5600,6.4700
104250.0,6.4000,2.6000,6.3200
104300.0,6.3600,2.7200,6.4000
104350.0,6.3600,2.6800,6.5100
104400.0,6.4700,2.5600,6.4700
104450.0,6.5500,2.4900,6.4000
104500.0,6.5100,2.4500,6.3600
104550.0,6.5100,2.4900,6.4700
104600.0,6.5500,2.5300,6.4400
104650.0,6.4400,2.4900,6.4000
104700.0,6.5500,2.4900,6.4400
104750.0,6.5500,2.4900,6.4000
104800.0,6.5500,2.4900,6.4700
104850.0,6.4700,2.5300,6.4700
104900.0,6.5500,2.5300,6.4700
104950.0,6.5500,2.5300,6.4000
105000.0,6.5900,2.4500,6.4400
105050.0,6.5900,2.4500,6.4400
105100.0,6.5500,2.4900,6.4400
105150.0,6.3600,2.4900,6.4400
105200.0,6.4700,2.4900,6.5500
105250.0,6.5500,2.4500,6.4700
105300.0,6.6600,2.4900,6.4700
105350.0,6.4700,2.5300,6.4400
105400.0,6.4000,2.5600,6.4700
105450.0,6.3600,2.5300,6.5100
105500.0,6.4400,2.5600,6.4700
105550.0,6.4700,2.5600,6.4400
105600.0,6.4400,2.4900,6.4700
105650.0,6.4700,2.4500,6.4700
105700.0,6.4700,2.5300,6.5100
105750.0,6.4400,2.5300,6.5100
105800.0,6.4400,2.5600,6.4700
105850.0,6.3200,2.4900,6.4700
105900.0,6.4400,2.5300,6.5100
105950.0,6.4400,2.5300,6.5100
106000.0,6.5100,2.5600,6.5100
106050.0,6.5500,2.5600,6.5100
106100.0,6.4700,2.4900,6.4400
106150.0,6.4000,2.4100,6.5500
106200.0,6.3200,2.4900,6.5500
106250.0,6.4400,2.6000,6.5500
106300.0,6.4400,2.5600,6.4700
106350.0,6.3600,2.4900,6.5100
106400.0,6.4000,2.4900,6.5100
106450.0,6.4000,2.5300,6.5500
106500.0,6.4000,2.4900,6.5100
106550.0,6.4000,2.4900,6.5100
106600.0,6.4700,2.5300,6.5500
106650.0,6.5100,2.5600,6.5100
106700.0,6.4700,2.6000,6.5500
106750.0,6.4000,2.4500,6.5100
106800.0,6.4000,2.4500,6.5100
106850.0,6.4400,2.5600,6.5100
106900.0,6.4400,2.5300,6.5900
106950.0,6.3600,2.4500,6.5900
107000.0,6.3600,2.4500,6.5500
107050.0,6.3600,2.4900,6.5500
107100.0,6.4000,2.4900,6.5500
107150.0,6.3600,2.5300,6.5500
107200.0,6.4000,2.5300,6.5100
107250.0,6.3600,2.4900,6.5100
107300.0,6.4000,2.5600,6.5900
107350.0,6.4000,2.5300,6.5500
107400.0,6.4000,2.4900,6.5500
107450.0,6.3600,2.4900,6.5500
107500.0,6.3200,2.4900,6.5100
107550.0,6.3600,2.5300,6.5100
107600.0,6.3200,2.5300,6.5500
107650.0,6.3600,2.4900,6.5500
107700.0,6.3200,2.4500,6.5500
107750.0,6.3600,2.4900,6.5100
107800.0,6.3600,2.5300,6.5100
107850.0,6.4000,2.4900,6.4700
107900.0,6.3600,2.4500,6.5100
107950.0,6.3600,2.4900,6.5500
108000.0,6.3600,2.4900,6.5900
108050.0,6.4000,2.5300,6.5500
108100.0,6.3600,2.4900,6.5900
108150.0,6.4000,2.4500,6.5500
108200.0,6.4000,2.4500,6.5500
108250.0,6.3600,2.4500,6.5100
108300.0,6.4000,2.4900,6.5500
108350.0,6.3600,2.4500,6.5500
108400.0,6.3600,2.4900,6.6300
108450.0,6.4000,2.4500,6.5900
108500.0,6.4000,2.4500,6.5100
108550.0,6.3200,2.4500,6.5500
108600.0,6.3600,2.4500,6.5100
108650.0,6.4400,2.4500,6.4700
108700.0,6.4000,2.4900,6.5100
108750.0,6.3600,2.4500,6.5500
108800.0,6.3600,2.4900,6.5500
108850.0,6.3600,2.4900,6.5500
108900.0,6.3600,2.4900,6.5500
108950.0,6.4000,2.4900,6.5100
109000.0,6.3600,2.4500,6.5100
109050.0,6.3600,2.4900,6.5500
109100.0,6.4000,2.4500,6.5100
109150.0,6.3600,2.4500,6.5500
109200.0,6.4000,2.4500,6.5500
109250.0,6.3600,2.4100,6.5900
109300.0,6.3600,2.4500,6.5500
109350.0,6.3600,2.4900,6.5500
109400.0,6.4000,2.4900,6.5100
109450.0,6.3200,2.4500,6.5100
109500.0,6.3600,2.4500,6.5500
109550.0,6.4000,2.4100,6.5900
109600.0,6.3600,2.4500,6.5100
109650.0,6.4000,2.4500,6.5900
109700.0,6.4000,2.4900,6.5100
109750.0,6.4000,2.4900,6.5100
109800.0,6.3600,2.4500,6.5100
109850.0,6.3600,2.4900,6.5900
109900.0,6.3600,2.4500,6.5500
109950.0,6.3600,2.4500,6.5100
110000.0,6.4000,2.4900,6.5500
110050.0,6.4000,2.4500,6.5500
110100.0,6.4000,2.4100,6.5500
110150.0,6.3200,2.4500,6.5500
110200.0,6.3600,2.4900,6.5900
110250.0,6.4000,2.4500,6.5500
110300.0,6.3600,2.4500,6.5900
110350.0,6.3600,2.4500,6.5900
110400.0,6.3600,2.4500,6.5500
110450.0,6.3600,2.4900,6.5500
110500.0,6.4000,2.4500,6.5500
110550.0,6.3600,2.4900,6.5100
110600.0,6.4000,2.4900,6.5500
110650.0,6.3600,2.4500,6.5100
110700.0,6.4000,2.4900,6.5900
110750.0,6.4000,2.4900,6.5500
110800.0,6.3600,2.4500,6.5500
110850.0,6.4000,2.4500,6.5500
110900.0,6.4000,2.4900,6.5900
110950.0,6.3600,2.4500,6.5900
111000.0,6.4000,2.4900,6.6300
111050.0,6.3600,2.4900,6.5900
111100.0,6.3600,2.4500,6.5500
111150.0,6.3600,2.4100,6.5900
111200.0,6.2800,2.4500,6.5900
111250.0,6.3200,2.4900,6.5900
111300.0,6.2800,2.4500,6.5900
111350.0,6.3200,2.4900,6.5900
111400.0,6.3600,2.4900,6.5500
111450.0,6.3600,2.5300,6.5500
111500.0,6.3200,2.4500,6.5100
111550.0,6.3600,2.4500,6.5500
111600.0,6.4000,2.4500,6.5500
111650.0,6.3600,2.4500,6.5500
111700.0,6.3600,2.4500,6.5900
111750.0,6.3600,2.4500,6.5500
111800.0,6.3200,2.4500,6.5500
111850.0,6.3200,2.4500,6.5100
111900.0,6.3600,2.4500,6.5500
111950.0,6.3200,2.4500,6.5100
112000.0,6.3200,2.4900,6.5500
112050.0,6.3200,2.4900,6.5500
112100.0,6.3200,2.4500,6.5500
112150.0,6.3200,2.4900,6.5500
112200.0,6.3600,2.4900,6.5500
112250.0,6.4000,2.4900,6.5500
112300.0,6.3200,2.4500,6.5100
112350.0,6.3600,2.4500,6.5500
112400.0,6.3200,2.4500,6.5500
112450.0,6.3600,2.4500,6.5500
112500.0,6.3600,2.4500,6.5500
112550.0,6.3600,2.4500,6.5900
112600.0,6.3600,2.4900,6.5500
112650.0,6.3600,2.4500,6.5500
112700.0,6.3600,2.4900,6.5500
112750.0,6.3600,2.4500,6.5100
112800.0,6.3600,2.4900,6.5900
112850.0,6.4000,2.4900,6.5500
112900.0,6.4000,2.4900,6.5500
112950.0,6.3600,2.4500,6.5100
113000.0,6.4000,2.4900,6.5100
113050.0,6.4000,2.4900,6.5500
113100.0,6.3600,2.4900,6.5900
113150.0,6.4000,2.4500,6.5500
113200.0,6.3600,2.4900,6.5500
113250.0,6.3600,2.4900,6.5900
113300.0,6.3600,2.4500,6.5500
113350.0,6.3600,2.4900,6.5500
113400.0,6.3600,2.4500,6.5500
113450.0,6.3600,2.4900,6.5500
113500.0,6.3200,2.4500,6.5500
113550.0,6.3600,2.4500,6.5900
113600.0,6.3200,2.4500,6.5900
113650.0,6.2800,2.4900,6.5500
113700.0,6.3200,2.4500,6.5900
113750.0,6.3600,2.4500,6.5900
113800.0,6.4000,2.4900,6.5500
113850.0,6.3200,2.4500,6.5100
113900.0,6.3200,2.4500,6.5500
113950.0,6.3200,2.4500,6.5900
114000.0,6.4000,2.4500,6.6300
114050.0,6.3600,2.4100,6.5500
114100.0,6.3600,2.4500,6.5900
114150.0,6.4000,2.4500,6.5500
114200.0,6.3600,2.4100,6.5500
114250.0,6.3200,2.4500,6.5900
114300.0,6.3600,2.4500,6.5900
114350.0,6.3200,2.4500,6.5900
114400.0,6.3600,2.4500,6.5500
114450.0,6.3200,2.4500,6.5500
114500.0,6.3200,2.4500,6.5900
114550.0,6.3600,2.4500,6.5900
114600.0,6.3200,2.4500,6.5500
114650.0,6.3200,2.4100,6.5900
114700.0,6.4000,2.4900,6.5500
114750.0,6.3200,2.4500,6.5100
114800.0,6.3600,2.4500,6.5100
114850.0,6.3600,2.4900,6.5900
114900.0,6.3600,2.4500,6.5100
114950.0,6.3600,2.4900,6.5500
115000.0,6.3600,2.4500,6.5100
115050.0,6.3600,2.4500,6.5100
115100.0,6.3600,2.4900,6.5100
115150.0,6.4000,2.4500,6.5500
115200.0,6.4000,2.4900,6.5500
115250.0,6.4000,2.4900,6.4700
115300.0,6.4400,2.4900,6.5500
115350.0,6.4000,2.4500,6.5100
115400.0,6.4400,2.4900,6.5100
115450.0,6.4000,2.4500,6.5100
115500.0,6.4000,2.4500,6.4700
115550.0,6.4400,2.4500,6.5500
115600.0,6.4000,2.4900,6.5100
115650.0,6.4000,2.4900,6.5100
115700.0,6.4400,2.4900,6.4700
115750.0,6.4000,2.4900,6.5500
115800.0,6.4400,2.4900,6.5100
115850.0,6.4400,2.4900,6.5100
115900.0,6.4000,2.4900,6.5500
115950.0,6.4000,2.4900,6.5900
116000.0,6.4000,2.4900,6.5100
116050.0,6.4000,2.5300,6.5500
116100.0,6.4400,2.4500,6.5900
116150.0,6.4700,2.4900,6.5500
116200.0,6.4400,2.4900,6.4700
116250.0,6.4400,2.4500,6.4700
116300.0,6.4400,2.4900,6.4700
116350.0,6.4400,2.4900,6.5100
116400.0,6.4400,2.4900,6.5500
116450.0,6.4700,2.5300,6.4700
116500.0,6.4700,2.4900,6.5100
116550.0,6.4400,2.4900,6.5500
116600.0,6.4000,2.4900,6.4700
116650.0,6.4000,2.4900,6.4700
116700.0,6.4000,2.4900,6.4700
116750.0,6.4400,2.4900,6.5500
116800.0,6.4000,2.4900,6.5500
116850.0,6.4000,2.4500,6.4700
116900.0,6.4000,2.4500,6.5100
116950.0,6.4000,2.4900,6.5900
117000.0,6.3600,2.4500,6.5500
117050.0,6.4000,2.4500,6.5500
117100.0,6.3600,2.4900,6.5900
117150.0,6.4000,2.4900,6.5100
117200.0,6.3600,2.4500,6.5500
117250.0,6.4000,2.4500,6.5100
117300.0,6.4000,2.4500,6.5500
117350.0,6.4000,2.4900,6.5500
117400.0,6.4000,2.4900,6.5100
117450.0,6.4000,2.4900,6.5100
117500.0,6.4400,2.4500,6.5500
117550.0,6.4000,2.4500,6.5100
117600.0,6.4000,2.4500,6.5500
117650.0,6.4000,2.4900,6.4700
117700.0,6.4400,2.4900,6.5100
117750.0,6.4000,2.4900,6.5500
117800.0,6.4000,2.4500,6.5100
117850.0,6.4400,2.5300,6.4700
117900.0,6.4400,2.5300,6.5900
117950.0,6.4000,2.4500,6.5500
118000.0,6.4400,2.4900,6.5500
118050.0,6.4000,2.4900,6.5100
118100.0,6.4000,2.4900,6.5100
118150.0,6.4400,2.4900,6.5500
118200.0,6.4400,2.4500,6.4700
118250.0,6.4400,2.4900,6.5500
118300.0,6.4000,2.4900,6.5500
118350.0,6.3600,2.4900,6.5500
118400.0,6.4000,2.4900,6.5500
118450.0,6.4400,2.4900,6.4700
118500.0,6.3600,2.4500,6.5100
118550.0,6.4000,2.4900,6.5900
118600.0,6.4000,2.4900,6.5500
118650.0,6.3600,2.4900,6.4700
118700.0,6.4000,2.5300,6.5100
118750.0,6.4400,2.5300,6.4700
118800.0,6.3600,2.4900,6.5100
118850.0,6.4000,2.5300,6.5500
118900.0,6.3600,2.4900,6.5500
118950.0,6.4000,2.4900,6.4700
119000.0,6.3600,2.4900,6.5100
119050.0,6.4000,2.4900,6.5500
119100.0,6.4400,2.5300,6.5500
119150.0,6.3600,2.4900,6.5500
119200.0,6.4000,2.4900,6.5100
119250.0,6.3600,2.4500,6.5100
119300.0,6.3200,2.5300,6.5500
119350.0,6.3600,2.4900,6.6300
119400.0,6.3600,2.4100,6.5500
119450.0,6.3600,2.4100,6.5500
119500.0,6.4000,2.4900,6.5100
119550.0,6.3600,2.4900,6.5100
119600.0,6.3600,2.4900,6.5500
119650.0,6.3600,2.4900,6.5100
119700.0,6.4000,2.4500,6.5500
119750.0,6.4000,2.5300,6.5500
119800.0,6.4000,2.4900,6.5900
119850.0,6.3600,2.4900,6.5100
119900.0,6.4000,2.4500,6.5100
119950.0,6.4000,2.4500,6.5100
120000.0,6.3600,2.4500,6.5100
120050.0,6.4000,2.4900,6.5900
120100.0,6.4000,2.5300,6.5100
120150.0,6.4000,2.4500,6.5500
120200.0,6.3600,2.4500,6.5500
120250.0,6.4000,2.4900,6.5100
120300.0,6.3600,2.4500,6.5500
120350.0,6.4000,2.4500,6.5900
120400.0,6.3600,2.4900,6.5100
120450.0,6.3200,2.4500,6.5500
120500.0,6.3600,2.4500,6.5500
120550.0,6.3600,2.4900,6.5500
120600.0,6.3600,2.4500,6.5900
120650.0,6.3600,2.4900,6.5500
120700.0,6.3600,2.4500,6.5900
120750.0,6.3600,2.4500,6.5500
120800.0,6.3600,2.4500,6.5500
120850.0,6.3600,2.4500,6.5500
120900.0,6.3200,2.4100,6.5500
120950.0,6.3200,2.4500,6.7000
121000.0,6.3600,2.4900,6.5100
121050.0,6.4400,2.4500,6.5900
121100.0,6.3600,2.4900,6.5500
121150.0,6.3200,2.4500,6.5500
121200.0,6.3600,2.4900,6.5500
121250.0,6.3600,2.4900,6.5500
121300.0,6.3600,2.4500,6.5500
121350.0,6.3600,2.4500,6.5900
121400.0,6.4000,2.4900,6.5900
121450.0,6.3600,2.4500,6.5500
121500.0,6.3200,2.4900,6.5900
121550.0,6.2800,2.3700,6.5900
121600.0,6.3200,2.4100,6.5100
121650.0,6.4000,2.4900,6.5100
121700.0,6.4000,2.4900,6.5100
121750.0,6.3600,2.4500,6.5100
121800.0,6.3600,2.4500,6.5100
121850.0,6.3600,2.4500,6.5500
121900.0,6.3200,2.4500,6.5500
121950.0,6.3600,2.4900,6.5500
122000.0,6.3600,2.4500,6.5500
122050.0,6.3600,2.4900,6.5500
122100.0,6.3600,2.4500,6.5100
122150.0,6.3600,2.5300,6.5100
122200.0,6.3200,2.4900,6.5100
122250.0,6.4000,2.4500,6.5500
122300.0,6.4000,2.4900,6.5100
122350.0,6.3200,2.4500,6.5500
122400.0,6.3600,2.4500,6.5500
122450.0,6.3200,2.4500,6.5100
122500.0,6.3600,2.4500,6.5900
122550.0,6.3600,2.4500,6.5500
122600.0,6.3600,2.4500,6.5500
122650.0,6.4000,2.4900,6.5500
122700.0,6.3600,2.4500,6.5500
122750.0,6.3600,2.4500,6.5100
122800.0,6.3600,2.4500,6.5900
122850.0,6.3600,2.4500,6.5500
122900.0,6.5900,2.4900,6.6300
122950.0,6.2800,2.4100,6.4400
123000.0,6.1300,2.4900,6.5100
123050.0,6.2800,2.6000,6.5500
123100.0,6.4400,2.6000,6.5500
123150.0,6.3600,2.4500,6.5100
123200.0,6.4400,2.4500,6.4400
123250.0,6.4700,2.5300,6.5100
123300.0,6.4000,2.5300,6.5500
123350.0,6.2100,2.5300,6.5500
123400.0,6.4400,2.5600,6.6600
123450.0,6.5100,2.3700,6.5500
123500.0,6.5500,2.2600,6.4700
123550.0,6.5100,2.3000,6.4400
123600.0,6.4700,2.4100,6.5100
123650.0,6.5100,2.4500,6.5500
123700.0,6.4700,2.3700,6.5500
123750.0,6.4700,2.3400,6.4400
123800.0,6.4700,2.3700,6.4000
123850.0,6.4400,2.4100,6.4400
123900.0,6.5100,2.4500,6.5100
123950.0,6.4700,2.4500,6.4000
124000.0,6.4000,2.4900,6.5100
124050.0,6.4700,2.6000,6.5500
124100.0,6.5500,2.6000,6.5100
124150.0,6.4400,2.5300,6.5100
124200.0,6.1700,2.5300,6.5500
124250.0,6.2400,2.6000,6.5100
124300.0,6.4000,2.6800,6.5100
124350.0,6.4400,2.6800,6.4700
124400.0,6.4000,2.6400,6.5500
124450.0,6.3600,2.6400,6.5500
124500.0,6.3600,2.6400,6.5100
124550.0,6.5100,2.6000,6.5500
124600.0,6.3600,2.6800,6.5100
124650.0,6.4000,2.6000,6.5100
124700.0,6.4400,2.6000,6.5900
124750.0,6.3600,2.6000,6.5500
124800.0,6.4400,2.5300,6.6300
124850.0,6.4000,2.5300,6.5500
124900.0,6.3200,2.5600,6.5900
124950.0,6.3600,2.6000,6.5500
125000.0,6.3600,2.5600,6.5100
125050.0,6.3200,2.5600,6.5100
125100.0,6.4000,2.5600,6.5900
125150.0,6.3600,2.5600,6.5100
125200.0,6.4000,2.5600,6.5100
125250.0,6.3600,2.5600,6.5500
125300.0,6.3600,2.5600,6.5100
125350.0,6.3200,2.5600,6.5900
125400.0,6.3600,2.5600,6.5500
125450.0,6.3200,2.5600,6.5500
125500.0,6.3600,2.6000,6.5500
125550.0,6.3600,2.5600,6.5500
125600.0,6.3600,2.5600,6.5900
125650.0,6.3200,2.5600,6.5500
125700.0,6.3200,2.5300,6.5500
125750.0,6.3200,2.5300,6.5500
125800.0,6.3600,2.5300,6.5500
125850.0,6.3200,2.6000,6.5500
125900.0,6.3600,2.5600,6.5900
125950.0,6.3600,2.5600,6.5500
126000.0,6.3200,2.5300,6.5900
126050.0,6.3600,2.5300,6.5900
126100.0,6.4000,2.5300,6.5500
126150.0,6.4000,2.6000,6.5500
126200.0,6.3600,2.5600,6.5100
126250.0,6.4000,2.5600,6.5900
126300.0,6.3600,2.5600,6.5100
126350.0,6.3200,2.5600,6.5100
126400.0,6.4000,2.5600,6.5500
126450.0,6.4000,2.5600,6.5100
126500.0,6.3600,2.5600,6.5100
126550.0,6.4000,2.5600,6.5500
126600.0,6.4400,2.5600,6.5500
126650.0,6.3600,2.5600,6.5100
126700.0,6.4400,2.5600,6.5500
126750.0,6.4000,2.5300,6.5900
126800.0,6.3600,2.5600,6.5500
126850.0,6.3200,2.5600,6.5100
126900.0,6.2800,2.5300,6.5900
126950.0,6.3200,2.5600,6.5900
127000.0,6.3200,2.5300,6.5900
127050.0,6.3600,2.5600,6.5900
127100.0,6.3200,2.5300,6.5900
127150.0,6.3600,2.5600,6.5500
127200.0,6.3600,2.5600,6.5900
127250.0,6.3600,2.5600,6.5500
127300.0,6.3200,2.5600,6.6300
127350.0,6.3200,2.5600,6.5900
127400.0,6.3600,2.6000,6.5900
127450.0,6.3600,2.5300,6.5500
127500.0,6.3600,2.5300,6.5500
127550.0,6.3200,2.5300,6.5500
127600.0,6.3200,2.5300,6.5500
127650.0,6.3200,2.5300,6.6300
127700.0,6.3200,2.5300,6.5900
127750.0,6.2800,2.5300,6.5500
127800.0,6.2800,2.5300,6.5500
127850.0,6.3200,2.5600,6.5900
127900.0,6.3200,2.5300,6.5500
127950.0,6.3200,2.5600,6.5500
128000.0,6.3200,2.5300,6.5900
128050.0,6.3200,2.5300,6.5900
128100.0,6.3200,2.5600,6.5900
128150.0,6.2800,2.5600,6.5500
128200.0,6.3200,2.5600,6.5500
128250.0,6.3200,2.5600,6.5900
128300.0,6.4000,2.5600,6.5500
128350.0,6.3600,2.6400,6.5100
128400.0,6.4000,2.6000,6.4700
128450.0,6.4400,2.6000,6.5100
128500.0,6.4000,2.5600,6.5100
128550.0,6.4400,2.5600,6.5500
128600.0,6.4000,2.5600,6.5100
128650.0,6.4400,2.5600,6.5100
128700.0,6.4000,2.5600,6.4700
128750.0,6.4400,2.6000,6.5100
128800.0,6.4400,2.5600,6.5100
128850.0,6.4400,2.5600,6.5100
128900.0,6.5100,2.5600,6.5900
128950.0,6.3600,2.6400,6.4400
129000.0,6.4000,2.6400,6.4700
129050.0,6.4700,2.6400,6.5100
129100.0,6.4000,2.5600,6.5100
129150.0,6.4000,2.6000,6.5500
129200.0,6.4000,2.6000,6.5900
129250.0,6.4000,2.5600,6.5900
129300.0,6.3600,2.6000,6.5100
129350.0,6.3600,2.6400,6.5500
129400.0,6.3600,2.6000,6.5100
129450.0,6.3600,2.6000,6.5500
129500.0,6.3600,2.6000,6.5100
129550.0,6.3600,2.6000,6.5100
129600.0,6.4000,2.6000,6.5900
129650.0,6.4400,2.5600,6.5100
129700.0,6.3600,2.6400,6.5100
129750.0,6.3200,2.5600,6.5500
129800.0,6.4000,2.6000,6.4700
129850.0,6.4000,2.6000,6.5100
129900.0,6.4000,2.6000,6.5900
129950.0,6.3600,2.6000,6.5900
130000.0,6.4000,2.6400,6.5900
130050.0,6.3600,2.5600,6.5500
130100.0,6.4000,2.5300,6.5500
130150.0,6.3600,2.5600,6.4700
130200.0,6.3600,2.6400,6.5900
130250.0,6.4000,2.6400,6.5900
130300.0,6.4000,2.5600,6.5100
130350.0,6.4000,2.5600,6.5500
130400.0,6.3200,2.5600,6.4700
130450.0,6.2800,2.5600,6.5500
130500.0,6.2800,2.6000,6.5100
130550.0,6.4700,2.5600,6.5500
130600.0,6.4000,2.5300,6.4700
130650.0,6.3600,2.5600,6.5100
130700.0,6.3200,2.5300,6.4700
130750.0,6.4000,2.4500,6.5100
130800.0,6.4400,2.4100,6.5500
130850.0,6.5900,2.4100,6.5500
130900.0,6.4700,2.3400,6.4700
130950.0,6.4400,2.3000,6.5100
131000.0,6.3600,2.3700,6.5500
131050.0,6.4400,2.3700,6.5500
131100.0,6.4400,2.4100,6.4700
131150.0,6.5500,2.3700,6.4700
131200.0,6.5900,2.3700,6.4400
131250.0,6.5500,2.4900,6.4400
131300.0,6.4700,2.6400,6.4400
131350.0,6.4700,2.6400,6.5100
131400.0,6.4700,2.5300,6.4400
131450.0,6.5100,2.4900,6.4700
131500.0,6.5500,2.5300,6.3600
131550.0,6.5100,2.4900,6.4400
131600.0,6.5100,2.5300,6.4400
131650.0,6.4700,2.5300,6.4400
131700.0,6.3600,2.4900,6.4700
131750.0,6.4400,2.5300,6.5100
131800.0,6.4700,2.5300,6.4700
131850.0,6.4700,2.5300,6.4700
131900.0,6.4700,2.5300,6.4700
131950.0,6.4700,2.5600,6.4400
132000.0,6.5100,2.5600,6.5100
132050.0,6.4700,2.5300,6.5100
132100.0,6.5500,2.5600,6.4700
132150.0,6.4400,2.5300,6.4400
132200.0,6.4400,2.5600,6.4700
132250.0,6.4700,2.6000,6.4700
132300.0,6.4700,2.5600,6.4700
132350.0,6.4700,2.5300,6.4400
132400.0,6.5100,2.5300,6.4000
132450.0,6.4700,2.5600,6.5100
132500.0,6.4400,2.5300,6.4700
132550.0,6.4400,2.4900,6.4700
132600.0,6.5100,2.5300,6.5100
132650.0,6.4400,2.5300,6.4700
132700.0,6.5100,2.5300,6.5100
132750.0,6.4700,2.4900,6.4700
132800.0,6.4700,2.5300,6.5100
132850.0,6.4700,2.4900,6.4700
132900.0,6.4700,2.5300,6.4700
132950.0,6.4700,2.5300,6.5100
133000.0,6.4700,2.4900,6.4400
133050.0,6.5100,2.4900,6.4000
133100.0,6.5100,2.4900,6.4700
133150.0,6.5100,2.4900,6.4700
133200.0,6.4700,2.4900,6.5100
133250.0,6.5100,2.4900,6.4700
133300.0,6.5100,2.4900,6.4700
133350.0,6.4400,2.4900,6.4700
133400.0,6.4400,2.5300,6.4700
133450.0,6.4400,2.5300,6.4700
133500.0,6.4400,2.4900,6.5500
133550.0,6.4400,2.4900,6.4700
133600.0,6.4400,2.4900,6.5100
133650.0,6.4700,2.4900,6.4700
133700.0,6.4000,2.4900,6.4700
133750.0,6.4400,2.4900,6.4700
133800.0,6.4400,2.4500,6.5100
133850.0,6.4700,2.5300,6.4700
133900.0,6.4700,2.4900,6.4700
133950.0,6.4700,2.4900,6.4400
134000.0,6.4400,2.4900,6.4700
134050.0,6.4400,2.4900,6.4700
134100.0,6.5100,2.4900,6.4700
134150.0,6.5100,2.4900,6.4700
134200.0,6.5100,2.4900,6.4700
134250.0,6.4400,2.4900,6.4700
134300.0,6.4400,2.4900,6.4400
134350.0,6.5100,2.4900,6.5100
134400.0,6.4400,2.4900,6.5100
134450.0,6.4700,2.4900,6.5500
134500.0,6.4700,2.4900,6.4700
134550.0,6.4400,2.4900,6.4700
134600.0,6.4400,2.5300,6.4700
134650.0,6.4400,2.4900,6.4700
134700.0,6.4700,2.4900,6.5100
134750.0,6.4700,2.4900,6.5100
134800.0,6.4700,2.4900,6.4700
134850.0,6.4000,2.4900,6.4700
134900.0,6.4700,2.4900,6.5100
134950.0,6.4700,2.4900,6.5100
135000.0,6.4700,2.4900,6.5100
135050.0,6.4400,2.4500,6.5100
135100.0,6.4700,2.5600,6.4400
135150.0,6.4700,2.4900,6.4700
135200.0,6.4400,2.4500,6.4700
135250.0,6.4400,2.4500,6.4700
135300.0,6.5100,2.5300,6.5100
135350.0,6.5100,2.5300,6.4700
135400.0,6.4400,2.4900,6.5100
135450.0,6.4400,2.4900,6.4700
135500.0,6.5100,2.4900,6.5100
135550.0,6.4700,2.4900,6.5100
135600.0,6.4700,2.4500,6.5100
135650.0,6.4700,2.4900,6.5100
135700.0,6.4400,2.5300,6.4400
135750.0,6.4700,2.4900,6.4700
135800.0,6.4400,2.4900,6.5100
135850.0,6.4700,2.5300,6.4400
135900.0,6.4400,2.4900,6.4400
135950.0,6.5100,2.4900,6.5100
136000.0,6.4700,2.4500,6.5100
136050.0,6.5100,2.5300,6.4700
136100.0,6.4700,2.5300,6.4700
136150.0,6.4400,2.4900,6.4400
136200.0,6.4700,2.5300,6.4700
136250.0,6.4700,2.5300,6.4700
136300.0,6.4400,2.5600,6.4700
136350.0,6.4400,2.4900,6.5100
136400.0,6.5500,2.5300,6.4700
136450.0,6.5100,2.5300,6.5500
136500.0,6.4700,2.5300,6.4700
136550.0,6.4700,2.4900,6.5100
136600.0,6.5100,2.4900,6.5100
136650.0,6.4700,2.5300,6.5500
136700.0,6.4400,2.4900,6.4700
136750.0,6.5100,2.4900,6.5100
136800.0,6.5100,2.5300,6.5100
136850.0,6.5100,2.5300,6.5100
136900.0,6.4700,2.4900,6.5100
136950.0,6.4400,2.4900,6.4700
137000.0,6.4700,2.5300,6.4400
137050.0,6.4700,2.4900,6.5100
137100.0,6.4700,2.4900,6.5100
137150.0,6.4700,2.5300,6.4400
137200.0,6.5100,2.5300,6.4700
137250.0,6.4700,2.4900,6.4700
137300.0,6.4700,2.4900,6.4700
137350.0,6.5100,2.4900,6.5500
137400.0,6.4700,2.4900,6.4700
137450.0,6.4700,2.4900,6.5100
137500.0,6.4400,2.4900,6.5100
137550.0,6.4700,2.5300,6.4700
137600.0,6.5100,2.5300,6.5100
137650.0,6.4700,2.5300,6.5500
137700.0,6.4400,2.4900,6.5100
137750.0,6.4700,2.5300,6.4700
137800.0,6.4400,2.4500,6.4700
137850.0,6.4700,2.4900,6.4700
137900.0,6.4400,2.4900,6.4700
137950.0,6.4700,2.4900,6.5100
138000.0,6.4700,2.4900,6.4700
138050.0,6.4700,2.4500,6.5100
138100.0,6.4700,2.5300,6.4400
138150.0,6.4000,2.4900,6.4000
138200.0,6.4400,2.5300,6.4700
138250.0,6.4700,2.4900,6.4700
138300.0,6.4700,2.5300,6.4000
138350.0,6.5100,2.5300,6.5100
138400.0,6.4700,2.4900,6.4700
138450.0,6.5100,2.5300,6.4700
138500.0,6.4700,2.5300,6.4700
138550.0,6.4700,2.4900,6.4400
138600.0,6.5100,2.4900,6.4700
138650.0,6.5100,2.5300,6.4400
138700.0,6.5100,2.5300,6.4700
138750.0,6.4700,2.5600,6.5100
138800.0,6.4700,2.5300,6.4700
138850.0,6.5100,2.4900,6.4400
138900.0,6.4700,2.5300,6.4700
138950.0,6.5100,2.4900,6.5100
139000.0,6.4700,2.4900,6.5100
139050.0,6.4700,2.4500,6.5100
139100.0,6.4400,2.4900,6.4700
139150.0,6.4400,2.4500,6.4700
139200.0,6.4700,2.4900,6.4700
139250.0,6.5100,2.5300,6.4700
139300.0,6.4700,2.4900,6.4700
139350.0,6.4700,2.5300,6.4700
139400.0,6.5100,2.4900,6.4700
139450.0,6.4700,2.5300,6.5100
139500.0,6.4700,2.4900,6.5100
139550.0,6.4400,2.4900,6.4700
139600.0,6.4700,2.4900,6.5500
139650.0,6.4700,2.4900,6.4700
139700.0,6.5500,2.5300,6.4700
139750.0,6.4400,2.4900,6.4400
139800.0,6.4700,2.4900,6.4400
139850.0,6.4700,2.5300,6.4400
139900.0,6.4400,2.5300,6.5500
139950.0,6.4400,2.4900,6.5100
140000.0,6.4000,2.4500,6.5100
140050.0,6.4000,2.4900,6.5100
140100.0,6.4000,2.4500,6.5100
140150.0,6.4000,2.5300,6.5500
140200.0,6.4000,2.4500,6.4400
140250.0,6.4400,2.4900,6.5100
140300.0,6.3600,2.4900,6.5500
140350.0,6.4000,2.4900,6.5100
140400.0,6.4000,2.4500,6.5500
140450.0,6.3600,2.4500,6.5500
140500.0,6.4000,2.4500,6.5500
140550.0,6.4000,2.4500,6.5500
140600.0,6.3600,2.4900,6.5500
140650.0,6.3600,2.4500,6.5500
140700.0,6.4000,2.4500,6.5500
140750.0,6.4000,2.4500,6.4700
140800.0,6.4400,2.4900,6.5100
140850.0,6.4000,2.5300,6.5500
140900.0,6.3200,2.4500,6.5500
140950.0,6.3200,2.4500,6.5500
141000.0,6.3200,2.4500,6.5500
141050.0,6.4700,2.5300,6.5500
141100.0,6.4400,2.4100,6.5100
141150.0,6.3600,2.3700,6.4700
141200.0,6.3200,2.4100,6.4700
141250.0,6.4000,2.4900,6.5100
141300.0,6.4000,2.4500,6.5100
141350.0,6.4000,2.4900,6.5100
141400.0,6.5900,2.4100,6.4700
141450.0,6.5500,2.4900,6.4700
141500.0,6.4700,2.4500,6.5100
141550.0,6.4700,2.4500,6.5100
141600.0,6.4400,2.3700,6.4400
141650.0,6.4400,2.3700,6.4400
141700.0,6.5100,2.3400,6.4700
141750.0,6.4700,2.4500,6.5100
141800.0,6.5900,2.4100,6.5100
141850.0,6.5900,2.4100,6.5900
141900.0,6.6300,2.4900,6.4700
141950.0,6.4400,2.5600,6.3200
142000.0,6.2800,2.4900,6.5100
142050.0,6.1700,2.4500,6.5500
142100.0,6.3600,2.4500,6.4700
142150.0,6.4700,2.6000,6.4400
142200.0,6.4400,2.5300,6.5500
142250.0,6.4000,2.4900,6.5900
142300.0,6.4400,2.4500,6.5500
142350.0,6.5100,2.4500,6.4700
142400.0,6.5500,2.4100,6.5100
142450.0,6.5100,2.3700,6.5500
142500.0,6.5100,2.3700,6.4700
142550.0,6.4700,2.3700,6.4700
142600.0,6.4000,2.4100,6.5100
142650.0,6.4400,2.4500,6.5100
142700.0,6.4700,2.4900,6.5100
142750.0,6.4700,2.4500,6.5100
142800.0,6.4400,2.4500,6.4700
142850.0,6.4400,2.4900,6.4700
142900.0,6.4400,2.4500,6.5100
142950.0,6.4400,2.4100,6.4700
143000.0,6.4400,2.4100,6.5100
143050.0,6.4400,2.4500,6.4700
143100.0,6.4000,2.4500,6.5100
143150.0,6.4400,2.4500,6.4700
143200.0,6.4400,2.4100,6.5500
143250.0,6.4400,2.4500,6.5100
143300.0,6.4000,2.4500,6.5100
143350.0,6.4400,2.4500,6.5500
143400.0,6.4000,2.4100,6.5500
143450.0,6.4000,2.4500,6.5100
143500.0,6.4000,2.4100,6.5100
143550.0,6.4000,2.4100,6.5500
143600.0,6.4000,2.4100,6.5100
143650.0,6.4000,2.4500,6.5500
143700.0,6.4000,2.4500,6.5500
143750.0,6.3600,2.4500,6.5500
143800.0,6.4000,2.4100,6.5500
143850.0,6.3600,2.4100,6.4700
143900.0,6.4400,2.4500,6.5500
143950.0,6.4000,2.3700,6.5500
144000.0,6.4000,2.4500,6.5500
144050.0,6.4000,2.4500,6.5100
144100.0,6.4000,2.4500,6.5900
144150.0,6.4400,2.4500,6.5100
144200.0,6.4400,2.4100,6.5500
144250.0,6.4000,2.4100,6.5500
144300.0,6.4000,2.4100,6.5100
144350.0,6.3600,2.4100,6.5900
144400.0,6.3600,2.4100,6.5500
144450.0,6.4000,2.4100,6.5900
144500.0,6.4000,2.4100,6.5100
144550.0,6.4000,2.4100,6.5500
144600.0,6.4000,2.4100,6.5500
144650.0,6.4000,2.4100,6.5500
144700.0,6.4000,2.4500,6.5100
144750.0,6.4400,2.4100,6.5100
144800.0,6.4000,2.4100,6.5100
144850.0,6.4400,2.4100,6.5500
144900.0,6.4000,2.4500,6.5500
144950.0,6.4400,2.4500,6.5100
145000.0,6.4700,2.4500,6.5100
145050.0,6.4700,2.4900,6.4700
145100.0,6.4400,2.4500,6.5100
145150.0,6.4000,2.4500,6.5100
145200.0,6.5100,2.4900,6.5100
145250.0,6.4700,2.4500,6.4700
145300.0,6.4700,2.4500,6.5100
145350.0,6.4700,2.4500,6.5500
145400.0,6.4700,2.4900,6.5100
145450.0,6.4400,2.4500,6.5100
145500.0,6.4700,2.4500,6.5100
145550.0,6.4400,2.4500,6.5100
145600.0,6.4700,2.4500,6.4700
145650.0,6.4700,2.4100,6.5100
145700.0,6.4400,2.4100,6.5100
145750.0,6.4400,2.4500,6.4400
145800.0,6.4700,2.4500,6.5500
145850.0,6.5100,2.4500,6.4700
145900.0,6.4400,2.4100,6.4400
145950.0,6.5100,2.4500,6.4700
146000.0,6.4400,2.4500,6.5500
146050.0,6.4000,2.4500,6.4700
146100.0,6.5100,2.4500,6.4400
146150.0,6.4700,2.4100,6.5100
146200.0,6.4700,2.4500,6.4700
146250.0,6.4700,2.4500,6.5100
146300.0,6.4700,2.4100,6.4700
146350.0,6.4400,2.4500,6.5100
146400.0,6.4400,2.4100,6.5100
146450.0,6.4700,2.4100,6.5100
146500.0,6.4700,2.4500,6.5100
146550.0,6.4700,2.4500,6.4700
146600.0,6.5100,2.4500,6.5100
146650.0,6.5100,2.4900,6.5500
146700.0,6.4700,2.4500,6.5100
146750.0,6.4400,2.4100,6.5500
146800.0,6.5100,2.4900,6.4700
146850.0,6.4400,2.4100,6.5500
146900.0,6.4700,2.4500,6.4700
146950.0,6.4700,2.4500,6.5100
147000.0,6.4700,2.4500,6.4700
147050.0,6.4700,2.4100,6.5100
147100.0,6.4700,2.4500,6.4700
147150.0,6.4700,2.4500,6.4700
147200.0,6.5100,2.4500,6.4700
147250.0,6.4400,2.4100,6.4700
147300.0,6.4700,2.4500,6.5500
147350.0,6.4700,2.4900,6.4700
147400.0,6.4400,2.4900,6.5100
147450.0,6.4700,2.4500,6.5100
147500.0,6.4700,2.4500,6.5100
147550.0,6.4400,2.4100,6.5100
147600.0,6.4700,2.4100,6.5100
147650.0,6.4400,2.4100,6.4700
147700.0,6.5100,2.4900,6.4700
147750.0,6.4700,2.4500,6.5100
147800.0,6.4700,2.4500,6.5100
147850.0,6.4400,2.4500,6.5100
147900.0,6.4700,2.4100,6.5100
147950.0,6.5100,2.4100,6.5500
148000.0,6.4400,2.4100,6.5100
148050.0,6.3200,2.3700,6.4400
148100.0,6.3600,2.4500,6.4000
148150.0,6.3600,2.5300,6.5500
148200.0,6.5900,2.4500,6.7000
148250.0,6.5500,2.4100,6.4000
148300.0,6.7400,2.5600,6.2800
148350.0,6.5500,2.4900,6.4400
148400.0,6.5100,2.4500,6.4700
148450.0,6.4700,2.5300,6.5100
148500.0,6.5500,2.5600,6.5100
148550.0,6.4400,2.5600,6.5100
148600.0,6.3600,2.5300,6.4700
148650.0,6.4000,2.4500,6.4700
148700.0,6.4000,2.5300,6.4000
148750.0,6.4700,2.4900,6.4700
148800.0,6.5100,2.5300,6.4700
148850.0,6.4400,2.5300,6.4700
148900.0,6.4400,2.5300,6.4700
148950.0,6.4000,2.5300,6.4700
149000.0,6.4400,2.5300,6.4400
149050.0,6.4700,2.5300,6.5100
149100.0,6.4400,2.4500,6.4700
149150.0,6.4000,2.3700,6.5100
149200.0,6.4400,2.4500,6.5100
149250.0,6.4700,2.4500,6.5500
149300.0,6.4700,2.5300,6.5500
149350.0,6.4700,2.4900,6.5900
149400.0,6.5100,2.4900,6.5100
149450.0,6.4700,2.4500,6.4700
149500.0,6.4400,2.3700,6.5100
149550.0,6.4400,2.3400,6.5500
149600.0,6.4000,2.4100,6.5100
149650.0,6.4400,2.4900,6.4700
149700.0,6.3600,2.4100,6.5900
149750.0,6.4000,2.3400,6.5100
149800.0,6.4400,2.3400,6.4700
149850.0,6.5500,2.3700,6.4700
149900.0,6.4700,2.3400,6.5100
149950.0,6.4700,2.2600,6.5900
