timestamp,acc_x,acc_y,acc_z
0.0,-0.9500,5.0100,1.6481
50.0,-1.6100,5.2800,0.5721
100.0,-3.1700,7.5000,-0.0409
150.0,-0.4600,18.0900,-1.1169
200.0,7.1600,17.4300,0.4222
250.0,3.9900,13.6300,3.1735
300.0,1.5400,11.9600,0.8853
350.0,2.4500,8.7700,1.6072
400.0,1.3100,5.0100,0.6946
450.0,0.3100,2.4900,-1.4574
500.0,1.9900,2.7600,0.9943
550.0,3.9100,8.5800,2.3427
600.0,6.3600,10.6500,1.5391
650.0,-3.5700,19.5300,1.1169
700.0,-1.8800,16.9300,7.5457
750.0,2.9600,12.2600,1.9477
800.0,0.1500,7.6300,2.0703
850.0,-1.4200,3.7900,0.0409
900.0,0.5300,2.1800,0.9943
950.0,-0.8400,5.2200,2.1520
1000.0,-1.3800,8.5000,1.9205
1050.0,-1.6900,6.5100,1.0760
1100.0,-4.2900,17.2400,1.3757
1150.0,4.1400,9.6600,-1.4982
1200.0,8.5000,14.2100,2.9148
1250.0,4.2100,15.0200,3.2961
1300.0,2.6800,13.4400,1.6481
1350.0,-0.8000,7.5900,1.1850
1400.0,-1.6900,-0.8900,-2.9556
1450.0,-0.8000,-0.6900,0.1090
1500.0,1.1800,4.2100,-1.5255
1550.0,1.0800,2.6400,3.0646
1600.0,7.6300,16.9700,8.8124
1650.0,-3.0200,17.4300,7.1234
1700.0,-0.7600,12.2600,2.1112
1750.0,0.1900,10.6100,-1.1850
1800.0,4.2500,17.5800,2.7922
1850.0,-1.1400,8.9600,-1.4165
1900.0,-1.2300,8.1200,0.0409
1950.0,2.0700,2.4500,0.5040
2000.0,1.5000,2.8300,3.0646
2050.0,5.2800,8.4700,1.2258
2100.0,4.3700,7.8200,0.6946
2150.0,-3.6800,18.6600,2.2201
2200.0,-1.1800,18.0900,6.4697
2250.0,6.1700,10.8800,4.1814
2300.0,-0.0800,4.2900,1.2258
2350.0,-0.2300,2.2200,1.4574
2400.0,0.0000,0.5700,0.7627
2450.0,1.1400,10.9500,2.6423
2500.0,-3.2600,15.4700,4.0589
2550.0,-0.1900,9.4300,-7.7772
2600.0,3.5300,17.2700,-0.8445
2650.0,0.5700,12.6800,0.2724
2700.0,1.8800,10.5700,0.3814
2750.0,-1.1400,8.5000,-0.0409
2800.0,0.8900,7.0600,1.7979
2850.0,5.0900,7.1600,0.8853
2900.0,5.1800,9.7200,1.2258
2950.0,2.2200,8.5800,0.6946
3000.0,0.2300,16.1700,-0.9126
3050.0,-3.3000,19.5000,0.3405
3100.0,0.3100,12.9100,2.6423
3150.0,3.2100,8.3500,0.0817
3200.0,0.1100,4.7100,-0.6538
3250.0,0.8000,1.0800,1.2258
3300.0,1.0400,5.3300,2.5334
3350.0,1.0400,14.6700,7.4367
3400.0,-1.1200,13.9100,4.3313
3450.0,0.0800,9.3400,-0.4631
3500.0,2.3400,10.7600,-2.8739
3550.0,1.5700,10.7600,-0.9943
3600.0,-1.0400,7.5000,0.8853
3650.0,-1.1200,8.3100,-2.6015
3700.0,2.7900,8.2000,0.2724
3750.0,4.8200,8.8500,1.0351
3800.0,3.8700,11.4500,0.4631
3850.0,3.1500,13.7600,0.2315
3900.0,0.6100,11.1100,-1.1169
3950.0,-4.4400,15.3200,-1.4982
4000.0,-1.3300,16.1700,3.1463
4050.0,2.4100,9.8100,1.1441
4100.0,2.6400,5.4800,-0.4222
4150.0,0.2300,3.2600,0.6538
4200.0,1.7600,5.0100,2.5334
4250.0,0.5000,7.8900,3.1463
4300.0,0.7200,8.6900,5.8976
4350.0,-1.2700,10.4200,5.5980
4400.0,3.3800,13.7200,-2.8739
4450.0,3.1100,5.9400,-2.4925
4500.0,-1.6500,15.8300,-0.4222
4550.0,-0.6900,8.6900,1.2258
4600.0,-1.3100,6.5500,-0.1907
4650.0,1.5400,4.7900,-0.5312
4700.0,4.0200,3.9500,1.8796
4750.0,5.9400,9.3400,4.0180
4800.0,5.0100,7.6700,0.4222
4850.0,-1.7600,14.2100,2.5334
4900.0,-5.0100,19.3400,3.8273
4950.0,-5.0100,19.3400,3.8273
5000.0,6.0500,12.6800,6.9328
5050.0,3.5700,5.9400,1.4574
5100.0,-0.9100,1.5400,-0.1498
5150.0,-0.3400,0.0400,1.0351
5200.0,1.8400,3.1700,4.6037
5250.0,-3.0200,15.1700,1.7570
5300.0,-7.0100,17.5800,-2.6423
5350.0,7.0100,15.7000,-0.6946
5400.0,2.0700,12.5700,1.5391
5450.0,-0.5300,9.8500,2.2610
5500.0,1.9200,5.7900,0.8853
5550.0,1.1400,4.3300,1.6072
5600.0,2.4100,2.7200,0.9943
5650.0,3.3400,8.3900,3.4868
5700.0,2.9100,10.3800,0.8853
5750.0,-5.7900,19.4600,7.4367
5800.0,3.1500,14.2100,6.2109
5850.0,6.5100,8.6600,3.9499
5900.0,0.5700,4.4400,0.7219
5950.0,-2.1400,1.6900,1.1169
6000.0,0.8900,1.7600,1.4574
6050.0,1.1200,4.1000,3.6366
6100.0,-2.5600,11.5000,2.7922
6150.0,-7.0100,14.8200,1.2667
6200.0,3.5700,12.2200,-4.0180
6250.0,4.6700,18.0500,1.3757
6300.0,1.9500,11.5600,1.5391
6350.0,-1.2700,8.5400,-0.7219
6400.0,0.2700,4.3300,-0.6538
6450.0,2.9100,3.0200,-0.0409
6500.0,4.5600,4.9900,2.2610
6550.0,7.2500,11.1400,2.1112
6600.0,2.3700,14.6300,2.9829
6650.0,-5.0900,19.5700,2.6423
6700.0,4.7900,15.7900,5.5571
6750.0,3.6000,10.8000,3.4051
6800.0,-1.1800,4.1400,0.3814
6850.0,0.1900,-0.2300,0.3133
6900.0,1.9900,-0.6100,0.9943
6950.0,1.0400,5.7100,3.5958
7000.0,-1.1800,12.4900,5.8976
7050.0,-6.1700,12.1500,3.4459
7100.0,0.8000,12.1100,-6.4697
7150.0,5.7900,14.8600,-0.5721
7200.0,0.3800,11.7500,-0.0000
7250.0,-1.8800,8.0100,-0.6129
7300.0,0.9900,5.4800,0.1498
7350.0,1.2300,5.3300,0.9943
7400.0,7.1600,7.6700,1.6072
7450.0,3.3000,7.5000,2.5334
7500.0,-2.7200,16.7400,0.2315
7550.0,-4.0200,19.4600,3.4459
7600.0,8.6200,12.5700,5.4754
7650.0,1.9900,8.9200,3.1735
7700.0,0.0000,2.1100,0.1498
7750.0,0.3400,-2.3700,-0.6946
7800.0,2.6800,-0.8900,1.2258
7850.0,-1.2700,13.9100,4.0180
7900.0,-3.6400,3.5700,5.5571
7950.0,-1.1400,16.0900,-3.9499
8000.0,4.2100,16.9700,-0.8036
8050.0,1.4200,14.2900,0.9943
8100.0,0.3800,10.9200,0.7219
8150.0,0.9900,8.7300,0.6129
8200.0,0.3800,4.8200,-0.1907
8250.0,2.8700,5.2800,0.5040
8300.0,5.2200,5.9000,1.6072
8350.0,5.9000,9.0400,2.5334
8400.0,4.4400,12.1800,0.3814
8450.0,-8.0500,17.6900,-0.5721
8500.0,0.9500,19.4600,5.2438
8550.0,6.2800,11.8000,3.5277
8600.0,0.9300,7.3500,0.1907
8650.0,-0.8400,0.8900,-1.0351
8700.0,1.1400,-0.8000,-0.8036
8750.0,1.8400,0.7600,0.8445
8800.0,-1.4600,12.3400,6.0883
8850.0,-3.5700,9.1500,5.3664
8900.0,-5.3300,18.3900,6.0474
8950.0,3.9100,6.0200,-7.3958
9000.0,2.4500,12.0700,-0.5040
9050.0,1.9500,13.4400,-1.2667
9100.0,0.3800,6.7400,0.6538
9150.0,-2.3400,7.7800,-2.8739
9200.0,3.2100,7.9300,1.7570
9250.0,5.2400,9.1900,0.3133
9300.0,4.2500,11.7300,-0.0409
9350.0,2.0700,14.8200,0.4631
9400.0,1.2300,11.7500,-1.5255
9450.0,-3.5300,15.2400,-0.8853
9500.0,-2.3700,15.8900,2.7241
9550.0,2.3700,10.3800,0.1090
9600.0,2.3400,4.1400,0.4631
9650.0,1.2700,2.6000,0.4222
9700.0,0.3400,2.9600,0.7219
9750.0,1.9500,7.7400,4.2904
9800.0,1.9500,17.4700,7.7772
9850.0,1.8800,9.7000,7.4367
9900.0,-1.3300,14.2100,2.0294
9950.0,-0.3400,5.6300,-1.1850
10000.0,3.1100,13.4000,-2.4925
10050.0,-1.6500,7.2700,1.3076
10100.0,1.4600,6.1700,-1.9886
10150.0,0.8400,9.2800,0.5721
10200.0,2.4900,7.5500,-0.8036
10250.0,1.6500,10.0400,1.1169
10300.0,4.2100,10.6900,-0.9943
10350.0,1.8400,15.7900,-1.9886
10400.0,-1.5300,15.7500,-0.4222
10450.0,-3.9500,12.2200,-0.9126
10500.0,-2.7900,15.3600,1.3348
10550.0,0.3100,10.7300,-0.7219
10600.0,1.5000,4.7100,-0.0000
10650.0,1.2700,2.9100,0.5721
10700.0,0.5000,4.1800,1.4574
10750.0,1.5700,6.2400,4.9442
10800.0,5.7900,12.9500,8.0088
10850.0,5.7900,12.9500,8.0088
10900.0,-3.3000,14.5600,0.8036
10950.0,1.6500,9.3000,-0.4222
11000.0,1.9500,9.6600,-2.2610
11050.0,-2.1100,8.5400,0.5040
11100.0,1.9200,6.1300,-0.2996
11150.0,0.1500,8.2000,-0.7627
11200.0,3.5700,8.3500,-0.0000
11250.0,1.4600,10.3800,0.8445
11300.0,4.0600,11.3500,-0.2724
11350.0,0.6100,15.7900,-0.3814
11400.0,1.0400,11.4100,-0.9126
11450.0,-2.3000,14.6300,-0.0409
11500.0,-2.2200,13.6300,1.7570
11550.0,1.4600,8.8100,-0.5312
11600.0,1.3300,4.4800,0.6946
11650.0,0.1100,3.6400,1.5663
11700.0,1.6100,4.7100,2.3699
11750.0,1.8000,11.0700,4.0589
11800.0,4.8600,9.4300,8.6217
11850.0,0.0800,13.2900,4.6718
11900.0,-1.3300,13.4800,1.0351
11950.0,1.3100,7.5900,-1.5255
12000.0,-0.4600,10.1200,-1.3757
12050.0,0.6100,9.2800,1.6889
12100.0,0.8900,5.2800,-1.2258
12150.0,0.7600,7.1200,-0.6946
12200.0,2.6000,9.4700,-0.0000
12250.0,2.9100,11.1100,1.5391
12300.0,5.0900,11.0300,-0.9126
12350.0,-0.6500,16.7400,-0.8853
12400.0,-1.3100,10.8400,-0.5040
12450.0,-3.7600,15.8300,-0.1498
12500.0,-0.9900,13.2100,0.2724
12550.0,2.8700,7.5900,0.2315
12600.0,1.0800,4.1800,1.4165
12650.0,-0.5300,2.6000,0.1090
12700.0,-0.5300,5.1300,2.7649
12750.0,4.7500,10.3100,6.2109
12800.0,5.4100,11.6900,10.2697
12850.0,-2.1800,13.1400,2.6832
12900.0,-0.5000,10.1200,1.1441
12950.0,3.1500,12.0300,-0.6538
13000.0,-0.0400,7.2500,-1.0351
13050.0,0.5700,8.5800,0.6946
13100.0,0.4200,6.4700,-2.2201
13150.0,0.6500,8.0800,0.5312
13200.0,2.1500,9.0800,0.2724
13250.0,3.8300,11.4500,0.7219
13300.0,4.2100,11.9200,-0.2996
13350.0,-1.1400,16.8600,-0.1090
13400.0,-0.7600,9.5800,-0.2996
13450.0,-3.6000,14.7100,0.1090
13500.0,-0.8000,14.1800,-0.0000
13550.0,2.9800,6.5900,1.3757
13600.0,1.4600,4.1000,1.4574
13650.0,-0.3800,2.3400,0.0409
13700.0,0.4200,4.9400,3.1054
13750.0,5.2800,11.1100,6.3198
13800.0,0.1500,14.0200,9.8066
13850.0,-0.9900,13.6700,2.2610
13900.0,0.1900,7.2500,0.0817
13950.0,3.7200,10.3400,-1.7570
14000.0,-0.6900,8.7300,0.1498
14050.0,0.5300,8.0500,0.5040
14100.0,0.9500,7.3500,-1.3757
14150.0,2.1800,7.3500,0.8036
14200.0,1.2300,9.2300,0.5040
14250.0,1.9500,11.3000,0.9534
14300.0,3.9100,11.9200,-0.4631
14350.0,3.9100,11.9200,-0.4631
14400.0,0.5000,15.7900,-0.2724
14450.0,-1.7600,12.3400,-0.2315
14500.0,-3.7200,14.6700,1.4982
14550.0,1.0400,10.1900,0.3133
14600.0,3.4900,4.5600,1.5663
14650.0,1.2300,2.9100,1.4165
14700.0,-0.1500,3.9900,1.1850
14750.0,2.6400,7.4000,3.5277
14800.0,2.9600,15.0900,8.1995
14850.0,0.1100,12.1500,8.0496
14900.0,-2.4100,13.1800,0.7219
14950.0,1.3100,5.9000,-1.8387
15000.0,3.6800,11.1100,-0.9126
15050.0,-0.8000,9.2800,1.7979
15100.0,1.9900,5.9400,-1.2258
15150.0,-0.5300,7.7000,-0.1907
15200.0,2.3000,6.7400,-0.1498
15250.0,1.1400,11.6500,1.4574
15300.0,3.4100,12.1500,-0.5721
15350.0,-0.6500,17.8800,-0.7219
15400.0,-0.0400,10.9900,0.7627
15450.0,-2.6400,14.2500,0.6538
15500.0,0.0400,11.8800,0.5040
15550.0,3.1700,4.5600,0.9262
15600.0,0.9300,2.5600,0.6538
15650.0,-0.7600,2.5300,0.7219
15700.0,1.3100,9.3000,5.0940
15750.0,2.1800,15.4000,8.0769
15800.0,2.1100,12.1100,5.0940
15850.0,-2.9600,12.1800,3.1463
15900.0,2.6400,8.0100,-0.9943
15950.0,2.0700,9.7700,-0.8445
16000.0,-1.1200,8.2400,1.7570
16050.0,1.0400,4.4000,-0.0817
16100.0,0.9300,8.8500,-0.2996
16150.0,1.1800,9.7200,0.5312
16200.0,2.9800,11.6900,0.4222
16250.0,2.9800,16.5100,-0.2724
16300.0,1.9200,13.0600,-0.1498
16350.0,-0.7600,13.4000,0.1090
16400.0,-2.4500,14.3300,0.7627
16450.0,0.0800,9.3000,0.0409
16500.0,1.8000,4.3300,0.4222
16550.0,0.8900,1.8800,1.0351
16600.0,1.3100,3.3800,1.1169
16650.0,2.3700,11.9900,5.0940
16700.0,0.5000,15.3600,8.1177
16750.0,0.4200,12.3700,2.4517
16800.0,-2.1800,12.3700,2.4517
16850.0,-2.1800,12.3700,2.4517
16900.0,2.3400,10.0400,-1.2258
16950.0,-2.3700,6.9700,0.9943
17000.0,3.0200,9.4700,0.1498
17050.0,3.8300,4.7900,-0.1907
17100.0,0.9500,8.0500,1.5663
17150.0,1.1400,9.8100,0.4222
17200.0,3.4900,11.3500,-0.6538
17250.0,1.3800,15.6000,1.7979
17300.0,3.6400,11.3000,-0.6129
17350.0,-2.1100,14.7100,-0.5040
17400.0,-1.1400,15.4700,1.6481
17450.0,0.7200,8.3100,0.9534
17500.0,2.6000,3.8700,0.2724
17550.0,0.1100,1.6500,0.3133
17600.0,0.7600,4.5600,2.2610
17650.0,2.9600,13.3800,6.4016
17700.0,1.8800,12.1500,8.6625
17750.0,0.6900,11.5600,1.4574
17800.0,-1.9900,12.1800,1.7570
17850.0,2.4100,7.6300,-0.2724
17900.0,1.6100,7.7800,-1.3757
17950.0,0.9900,9.3000,1.7979
18000.0,0.3100,5.1800,-1.2258
18050.0,0.7600,9.4300,0.6946
18100.0,1.5400,9.1900,0.2315
18150.0,2.7200,11.9200,0.0817
18200.0,2.4500,15.7500,-0.1498
18250.0,2.1500,14.4100,-0.1090
18300.0,-0.8400,10.7300,0.3133
18350.0,-2.8700,15.0900,0.4222
18400.0,0.3400,8.6900,0.6538
18450.0,3.3400,4.7500,0.3133
18500.0,0.9900,1.6900,0.1090
18550.0,-0.1900,3.2100,2.0703
18600.0,3.4500,13.7200,6.3198
18650.0,2.1100,11.8400,9.9565
18700.0,-1.3100,15.3200,2.3699
18750.0,-1.1400,8.3500,0.6538
18800.0,2.9100,9.3800,-1.5255
18850.0,-1.2300,9.7000,-1.6481
18900.0,0.4600,7.7400,1.3076
18950.0,-1.1200,6.2800,-1.9477
19000.0,2.5600,8.6900,0.5721
19050.0,4.0200,10.5000,1.3348
19100.0,3.1100,12.3700,0.4631
19150.0,2.2200,15.2800,0.6538
19200.0,2.3000,11.3000,-1.2667
19250.0,-1.9500,14.7100,-0.1907
19300.0,-3.0600,14.1000,1.6072
19350.0,1.8400,7.7000,0.1090
19400.0,2.8700,4.0200,0.0409
19450.0,-0.2300,2.3000,0.3133
19500.0,-0.3000,5.5200,2.7241
19550.0,4.0600,12.8300,5.3664
19600.0,1.1800,12.4900,9.7249
19650.0,-3.1700,15.5500,2.6832
19700.0,0.0400,6.8900,-0.7219
19750.0,2.6000,9.8900,-1.2258
19800.0,-0.0800,9.3000,-0.9126
19850.0,-0.8000,7.4000,1.3348
19900.0,0.2300,6.5100,-1.6072
19950.0,3.0200,8.5000,0.3133
20000.0,2.4900,9.8100,1.1169
20050.0,2.4900,13.0200,0.7219
20100.0,2.3700,15.2800,0.6946
20150.0,1.1200,12.7600,-0.5721
20200.0,0.5300,11.9600,-1.5255
20250.0,-3.1500,15.4000,2.0703
20300.0,-0.3400,8.4700,0.8036
20350.0,3.7600,3.9100,-0.0409
20400.0,0.5000,2.1500,0.0817
20450.0,-0.7600,5.3700,2.7922
20500.0,3.0200,12.8300,6.1700
20550.0,0.9900,15.2800,9.1529
20600.0,-3.2100,12.4100,3.1054
20650.0,-0.8900,6.1700,-1.0760
20700.0,3.1500,12.0700,0.0409
20750.0,0.9300,6.9700,0.2315
20800.0,0.2700,6.6300,0.0817
20850.0,-0.1100,7.8600,-0.6946
20900.0,1.6900,8.6900,0.3405
20950.0,2.6800,10.4600,1.4982
21000.0,3.3800,12.4900,-0.4631
21050.0,1.0400,17.0500,-1.4982
21100.0,-1.1400,12.1100,0.2724
21150.0,-2.9100,14.6000,0.0817
21200.0,-1.3100,12.0300,0.9943
21250.0,2.9800,6.2100,-0.5312
21300.0,1.6100,2.9800,0.8036
21350.0,-0.2700,2.6000,0.8036
21400.0,-0.3400,7.4000,4.7944
21450.0,4.4800,13.1000,5.8976
21500.0,-0.3000,10.3100,9.0030
21550.0,-4.4400,15.9800,1.0351
21600.0,1.3300,7.7800,0.5721
21650.0,3.6800,7.9700,-1.9477
21700.0,-0.7600,9.5800,-0.2315
21750.0,0.3800,6.6300,1.8387
21800.0,0.2700,8.0500,-1.5663
21850.0,1.9500,8.4300,1.4982
21900.0,2.9800,10.5300,0.8445
21950.0,2.7600,12.0300,-0.3405
22000.0,0.3400,16.5500,0.2315
22050.0,1.5700,10.6900,-0.1498
22100.0,-2.9100,13.8700,0.1090
22150.0,-2.5600,13.4400,0.6538
22200.0,3.6400,5.8300,0.4631
22250.0,1.9500,3.7600,1.3348
22300.0,-0.5300,2.2200,0.7627
22350.0,-0.0400,6.5900,2.6832
22400.0,3.2600,14.1000,6.0474
22450.0,2.4100,8.2400,9.8066
22500.0,-1.4200,13.8700,2.8739
22550.0,-0.9100,12.3000,3.4051
22600.0,2.1100,8.3100,-0.7219
22650.0,0.7200,7.9700,-1.1850
22700.0,1.1200,9.3000,1.3076
22750.0,1.1200,9.3000,1.3076
22800.0,0.6900,6.3200,0.6946
22850.0,2.1100,9.9200,0.0409
22900.0,3.0600,12.7900,1.1441
22950.0,1.9500,15.4300,-0.2996
23000.0,0.3100,15.4700,-0.5721
23050.0,0.0800,11.4100,0.9943
23100.0,-3.6800,15.0900,1.0351
23150.0,0.0800,9.9600,0.4631
23200.0,3.5300,4.7500,0.4222
23250.0,1.0800,2.3000,0.9943
23300.0,-0.4600,2.8700,1.4574
23350.0,1.9900,9.0000,4.2087
23400.0,3.2600,15.4700,8.3084
23450.0,1.7600,9.4700,5.8295
23500.0,-4.6700,14.1400,0.6538
23550.0,0.4200,8.2000,0.3814
23600.0,2.7900,7.9700,-1.5255
23650.0,0.3800,9.4300,0.1498
23700.0,0.6500,5.0900,0.0817
23750.0,-0.4200,9.1500,-0.2724
23800.0,0.9900,9.6200,0.2724
23850.0,1.8800,11.2200,1.6072
23900.0,3.1700,12.4500,-0.8036
23950.0,1.3300,15.0500,-0.4631
24000.0,-0.1900,11.9900,-0.6946
24050.0,-3.6000,16.3600,0.8036
24100.0,-0.9100,10.8400,1.0351
24150.0,4.1400,5.7500,-0.0000
24200.0,0.9900,2.5300,0.5312
24250.0,-1.0800,2.5300,-0.0817
24300.0,-0.1100,8.2800,3.9499
24350.0,3.3800,16.4400,7.2460
24400.0,1.3300,10.3800,9.4661
24450.0,-5.0100,15.2800,-0.0409
24500.0,1.5000,7.5900,0.1498
24550.0,2.3700,8.2400,-1.4574
24600.0,-1.3800,9.2800,-0.5721
24650.0,2.2600,6.6600,0.9534
24700.0,0.8000,8.3900,-1.2258
24750.0,3.4900,8.3900,1.1850
24800.0,1.9200,10.6100,1.0760
24850.0,2.2600,12.0700,-0.2724
24900.0,-0.0800,16.0400,0.7627
24950.0,2.4100,10.4600,-1.3076
25000.0,-2.1800,14.6300,-0.5040
25050.0,-4.6300,14.3700,1.1169
25100.0,2.1800,6.4700,0.3814
25150.0,3.3800,3.8300,0.9262
25200.0,-0.3400,2.2200,0.1090
25250.0,-1.0400,6.2400,3.3778
25300.0,4.5200,14.1000,6.9328
25350.0,0.8000,10.2700,10.5285
25400.0,-1.5000,12.1100,1.3348
25450.0,-0.6100,12.4900,0.1498
25500.0,1.7300,7.5000,0.1090
25550.0,0.1900,7.5900,-2.3427
25600.0,1.4200,9.3000,2.1793
25650.0,1.1400,5.9800,-1.5255
25700.0,1.5700,8.8500,0.9943
25750.0,0.6900,9.1100,0.1907
25800.0,2.9600,11.8800,0.5721
25850.0,1.5000,15.4000,-0.1498
25900.0,2.6000,13.4000,-1.4982
25950.0,-1.6100,12.6800,0.4222
26000.0,-3.2100,15.6400,1.7979
26050.0,1.5400,8.6900,0.3814
26100.0,2.9800,4.3300,0.9262
26150.0,0.1100,2.3000,0.3814
26200.0,-0.5300,3.6400,0.6946
26250.0,1.9900,10.1200,4.8216
26300.0,1.5400,16.0900,8.7715
26350.0,0.6900,11.1800,5.8976
26400.0,-4.0600,12.7600,1.7298
26450.0,1.8000,7.5900,-0.1090
26500.0,3.8700,7.2700,-1.7298
26550.0,-1.0400,10.2300,-0.0000
26600.0,0.0000,5.9800,-0.0409
26650.0,-0.5700,8.8500,-0.3814
26700.0,1.8800,8.4300,0.0817
26750.0,3.7200,11.9600,1.3757
26800.0,2.7600,13.6300,-0.2724
26850.0,0.4200,15.5100,0.0817
26900.0,1.4600,10.1500,-0.6538
26950.0,-3.6800,14.9800,-0.1090
27000.0,-2.3000,12.4900,0.8853
27050.0,3.7600,5.8300,-0.0817
27100.0,1.1200,3.9500,1.1441
27150.0,-0.5300,3.1700,0.5040
27200.0,0.5300,6.8900,2.7649
27250.0,3.7200,13.4800,8.2812
27300.0,0.8400,10.5700,9.6568
27350.0,-3.4100,14.7100,-0.2315
27400.0,0.0000,9.0400,0.7219
27450.0,3.9500,7.7800,-2.4517
27500.0,-2.4900,9.1500,-0.0000
27550.0,2.3400,7.3100,0.6129
27600.0,-0.1100,7.1600,-1.9477
27650.0,2.1500,9.4300,0.6946
27700.0,0.1900,11.1400,0.9534
27750.0,3.9900,12.0700,0.2724
27800.0,1.9900,16.4700,0.5312
27850.0,0.7600,10.2300,-0.1907
27900.0,-1.4600,13.5700,0.1090
27950.0,-3.0200,13.4000,1.1850
28000.0,1.8000,8.6900,0.2315
28050.0,0.4600,4.0200,1.4165
28100.0,0.5000,3.4900,0.9943
28150.0,0.2300,4.2500,2.7241
28200.0,4.6300,14.6300,6.8919
28250.0,1.0400,8.0100,9.8475
28300.0,-1.7300,16.6300,2.3018
28350.0,0.2300,8.6200,0.6946
28400.0,1.6900,8.6900,-0.9943
28450.0,-0.4200,9.5800,-1.3757
28500.0,1.6100,7.6700,1.3348
28550.0,0.1900,6.3200,-1.3757
28600.0,2.0300,7.7400,0.5721
28650.0,1.6100,11.0700,0.8445
28700.0,1.9200,15.1700,-0.6129
28750.0,1.9200,15.1700,-0.6129
28800.0,0.1500,10.3100,0.0817
28850.0,0.0000,13.1000,-1.1169
28900.0,-2.8300,15.9800,2.3427
28950.0,1.6900,8.4700,0.3814
29000.0,2.8300,3.6400,0.6538
29050.0,-0.4200,3.0600,0.7627
29100.0,0.1100,6.8500,2.0294
29150.0,2.4900,9.8500,5.9793
29200.0,-0.7200,14.7900,9.5342
29250.0,1.4200,12.5700,1.4574
29300.0,-2.6000,10.3100,1.7979
29350.0,4.6300,8.9200,-0.5312
29400.0,0.9900,7.4600,-0.9534
29450.0,0.8900,8.4300,1.4165
29500.0,-0.5000,5.7500,-0.5721
29550.0,-0.2300,9.4700,1.2667
29600.0,0.6900,9.1900,-0.4631
29650.0,4.9400,11.3500,0.9262
29700.0,2.9600,14.4400,-0.6129
29750.0,1.0800,14.1400,-0.1090
29800.0,-0.7600,11.2200,-0.7627
29850.0,-3.9800,16.2500,1.4982
29900.0,-0.6500,10.2300,0.6946
29950.0,3.9100,4.8600,0.7219
30000.0,0.1900,2.7900,1.0760
30050.0,-0.8400,3.1500,1.0760
30100.0,1.5000,8.0100,4.6037
30150.0,3.4500,15.7500,8.6217
30200.0,-0.1500,10.1500,7.2052
30250.0,-0.1500,10.1500,7.2052
30300.0,-4.3300,13.0200,0.6538
30350.0,2.3700,11.3700,-0.4222
30400.0,3.4100,7.9300,-2.2610
30450.0,-1.4200,8.0100,1.9477
30500.0,1.4600,5.9800,-0.4222
30550.0,1.9200,7.6700,-0.6129
30600.0,1.5400,9.0800,0.3133
30650.0,0.4600,11.4100,1.9477
30700.0,4.0600,12.3700,-0.4222
30750.0,1.2700,16.7000,1.3348
30800.0,1.0400,10.5700,-0.9534
30850.0,-2.7200,14.8200,0.6538
30900.0,-1.7600,12.5300,1.5663
30950.0,4.0600,6.2100,-0.3405
31000.0,1.6900,3.0200,0.5040
31050.0,-1.3100,2.3700,0.4631
31100.0,-0.1100,6.4700,2.4925
31150.0,5.7500,14.5600,7.4367
31200.0,0.9500,10.0000,9.0030
31250.0,-2.6800,15.0900,0.9943
31300.0,0.1100,9.9200,1.1169
31350.0,3.1700,8.8500,-0.9534
31400.0,-1.1800,9.0800,-1.4574
31450.0,1.4200,7.2500,1.6072
31500.0,-1.3100,5.7100,-2.7513
31550.0,1.4200,9.5100,1.2667
31600.0,1.8800,10.1500,0.8445
31650.0,3.4500,11.4100,0.0409
31700.0,0.7200,16.4400,-0.0000
31750.0,1.5000,12.2600,-1.2667
31800.0,-2.1800,14.2100,-0.2315
31850.0,-2.6400,14.3700,1.3348
31900.0,2.7200,7.5500,-0.0409
31950.0,2.4900,3.7200,0.2315
32000.0,0.3100,1.9900,-0.2724
32050.0,0.1900,5.0100,2.4517
32100.0,2.9600,13.2900,4.9850
32150.0,1.7300,12.1800,10.5694
32200.0,-2.3400,12.6000,2.3699
32250.0,-0.4200,11.3700,0.8853
32300.0,1.9200,8.4300,0.0409
32350.0,1.5400,7.7000,-1.6481
32400.0,0.5000,9.3800,1.7298
32450.0,0.0400,5.9800,-1.3348
32500.0,0.1100,8.5400,0.3133
32550.0,1.5700,9.1900,0.2724
32600.0,3.4900,11.6500,0.8036
32650.0,2.9100,15.7500,0.1090
32700.0,1.7600,14.1000,-1.1169
32750.0,-1.3100,12.6000,0.1907
32800.0,-4.2500,14.7100,1.2258
32850.0,0.5300,8.5800,0.1090
32900.0,3.6800,4.5200,0.8445
32950.0,0.9500,2.0700,1.1850
33000.0,0.1500,3.6000,2.2610
33050.0,2.7600,11.6900,5.8295
33100.0,0.8400,12.8300,10.2289
33150.0,-0.3400,15.6400,1.9477
33200.0,-2.6400,6.9700,1.6481
33250.0,3.4900,11.3500,-0.6946
33300.0,1.1200,8.7300,0.6946
33350.0,0.4200,5.7100,1.1169
33400.0,1.0400,7.2100,-0.7627
33450.0,1.0400,7.1200,0.8036
33500.0,0.8000,9.2300,0.1498
33550.0,3.0200,12.9500,1.1169
33600.0,2.2200,14.1400,-0.0817
33650.0,1.0400,13.6700,-0.8853
33700.0,-0.9500,13.0600,-0.2315
33750.0,-3.1500,15.6000,1.5663
33800.0,0.8900,8.7300,0.8445
33850.0,3.9900,4.8200,1.1850
33900.0,0.8400,1.8400,0.6129
33950.0,-0.6500,2.8700,1.4574
34000.0,3.6000,11.8400,4.7535
34050.0,-0.1900,12.7900,9.6568
34100.0,0.3100,12.1500,2.9829
34150.0,-2.0700,12.3400,1.4574
34200.0,1.6500,9.2800,-0.0000
34250.0,1.7300,8.2400,-2.0703
34300.0,-1.6100,8.6200,1.0351
34350.0,1.1400,5.4100,-0.2996
34400.0,1.6900,8.5400,-0.0000
34450.0,2.4100,8.6600,0.2315
34500.0,2.6000,11.3500,1.5391
34550.0,3.5300,13.6700,-0.4631
34600.0,3.5300,13.6700,-0.4631
34650.0,0.5000,10.0400,-0.4631
34700.0,-3.7900,14.7100,0.2315
34750.0,-2.4500,12.8700,0.6538
34800.0,4.4000,5.8300,0.7627
34850.0,3.5700,3.0600,1.1850
34900.0,-0.3000,2.3700,0.0817
34950.0,0.4200,7.2100,3.2961
35000.0,2.9800,14.8600,6.4697
35050.0,-0.0400,10.3400,9.8066
35100.0,-2.1800,15.1700,-0.0000
35150.0,-0.1100,8.5000,1.5663
35200.0,4.1800,8.6200,-2.1793
35250.0,-2.0300,9.0000,-0.8036
35300.0,1.6500,7.0100,1.6481
35350.0,-0.0400,6.6600,-2.4108
35400.0,2.3700,9.1500,1.1850
35450.0,2.3400,12.1500,1.3757
35500.0,2.8300,13.8700,-0.0409
35550.0,1.8400,14.8600,0.0817
35600.0,0.4600,11.8000,-0.5040
35650.0,-3.3400,15.7900,1.1441
35700.0,0.8000,8.8500,0.6946
35750.0,3.7900,4.4800,0.2315
35800.0,-0.2300,1.8800,-0.1907
35850.0,-1.6100,3.6800,1.3757
35900.0,2.2600,10.5300,5.2847
35950.0,1.4600,16.1300,8.8124
36000.0,1.0400,12.6800,4.2087
36050.0,-3.2100,11.0300,0.7627
36100.0,2.2200,9.0800,-0.7219
36150.0,2.9100,9.1100,-1.7570
36200.0,-2.0300,8.3500,1.9205
36250.0,1.3800,5.9000,-0.8036
36300.0,0.6500,8.5800,-0.5040
36350.0,2.7600,8.5400,0.3405
36400.0,2.2600,11.0700,1.4165
36450.0,2.6400,13.1000,-0.3405
36500.0,0.4200,16.4000,-0.2724
36550.0,0.9300,9.5300,0.5721
36600.0,-1.5000,15.0500,-0.0817
36650.0,-1.9200,13.8200,0.8853
36700.0,3.1100,5.9800,0.2724
36750.0,2.1800,3.0200,0.2724
36800.0,-0.0800,2.1500,-0.1498
36850.0,0.5000,8.2000,4.6309
36900.0,3.1500,14.8600,5.7886
36950.0,-0.1900,7.2700,9.3436
37000.0,-2.4900,15.0500,-0.1090
37050.0,0.6100,13.2900,1.5663
37100.0,3.3800,5.6000,-1.2667
37150.0,-0.9900,7.7400,-2.9556
37200.0,1.4200,8.3900,2.8330
37250.0,-0.9100,7.1200,-2.0703
37300.0,1.2700,9.6600,1.2258
37350.0,3.1700,10.2700,1.0760
37400.0,3.1700,12.4100,0.3133
37450.0,1.8400,15.4700,0.8445
37500.0,1.5000,10.2300,-1.0351
37550.0,-2.1100,15.5500,-0.3405
37600.0,-1.7600,13.7200,1.6072
37650.0,3.3400,6.2400,-0.4631
37700.0,1.4200,2.7900,0.2724
37750.0,0.1500,2.8300,0.6129
37800.0,0.5000,6.9300,3.4051
37850.0,3.2100,13.7200,4.9033
37900.0,-0.0400,10.5000,9.8884
37950.0,0.7200,13.2900,1.3076
38000.0,-0.2700,11.3000,0.5312
38050.0,2.7900,7.8600,-1.5663
38100.0,-1.0800,10.4200,-1.9205
38150.0,1.4600,9.2300,2.8739
38200.0,1.1200,5.6000,-2.1112
38250.0,0.7200,9.3400,0.6538
38300.0,1.8400,8.2800,0.6946
38350.0,3.6800,10.2300,0.8853
38400.0,4.2900,13.6700,-0.6129
38450.0,-0.2300,14.9800,-0.1090
38500.0,0.3400,11.6000,0.0817
38550.0,-2.8300,15.4000,1.5391
38600.0,-0.8400,12.2600,0.2724
38650.0,2.6000,5.0100,0.3133
38700.0,0.2300,3.3800,0.6129
38750.0,0.5000,3.4900,1.7570
38800.0,1.9200,8.5400,4.3721
38850.0,2.4500,12.7600,8.0088
38900.0,-0.4600,11.9900,6.5105
38950.0,-1.6900,13.2100,1.4574
39000.0,1.2700,6.3600,-0.7627
39050.0,5.4100,11.6000,-1.6072
39100.0,-2.4100,7.4000,1.5663
39150.0,1.0400,5.4300,0.2315
39200.0,-0.0400,7.6700,0.1498
39250.0,2.2600,8.8100,0.4222
39300.0,1.1800,11.8400,0.6946
39350.0,2.6400,12.7200,-0.5312
39400.0,1.3300,16.8600,0.8853
39450.0,2.2600,9.3400,-0.1090
39500.0,-2.9600,14.5600,0.2315
39550.0,-1.8000,13.4800,0.8445
39600.0,5.2400,5.2200,0.8445
39650.0,5.2400,5.2200,0.8445
39700.0,1.3100,2.3000,-0.2315
39750.0,-1.6900,2.7900,1.0351
39800.0,3.5700,10.3800,4.9033
39850.0,0.8900,14.6000,10.3787
39900.0,1.2700,11.6500,1.5663
39950.0,-2.6000,15.0200,1.3076
40000.0,2.5300,6.9700,-1.1441
40050.0,-0.4200,8.6600,-1.8796
40100.0,1.0800,8.8500,2.6832
40150.0,0.2700,3.4900,-1.4574
40200.0,0.6100,10.2700,1.2667
40250.0,1.9900,9.0800,0.3133
40300.0,4.2100,11.7500,0.6129
40350.0,2.0700,15.8500,-0.0000
40400.0,2.4500,12.0700,-0.9943
40450.0,2.4500,12.0700,-0.9943
40500.0,-2.7900,15.0900,1.9205
40550.0,2.1500,8.3900,0.1907
40600.0,3.1100,3.8300,0.7219
40650.0,0.2700,1.9500,0.1090
40700.0,-0.0400,4.4000,1.4165
40750.0,2.3700,12.3700,5.3256
40800.0,-0.1500,14.0600,8.0088
40850.0,-1.5700,10.3800,2.1520
40900.0,-2.7500,16.5900,0.8853
40950.0,5.3700,8.9600,0.1090
41000.0,1.7300,4.2100,-2.7922
41050.0,-3.6000,11.4100,1.2258
41100.0,-0.2300,4.5200,-0.8853
41150.0,2.6000,9.6200,0.3133
41200.0,4.1000,9.2800,0.6538
41250.0,2.4900,13.1000,1.1441
41300.0,1.9900,13.5900,0.3405
41350.0,2.9800,9.8500,-0.1498
41400.0,-1.5300,14.1800,-2.0703
41450.0,-0.9900,15.2800,2.0703
41500.0,2.9600,9.1100,1.4574
41550.0,2.9100,5.2200,0.4631
41600.0,0.3800,1.9500,0.6946
41650.0,1.5400,4.7900,1.8796
41700.0,0.6100,13.5300,4.9850
41750.0,-1.1400,11.5600,8.2403
41800.0,-0.8900,17.5400,-2.3427
41850.0,1.0400,4.6700,1.0760
41900.0,6.2800,12.1100,-3.1735
41950.0,-3.1500,9.1900,4.2904
42000.0,0.6500,3.9100,-0.2315
42050.0,-0.1500,10.3400,-0.0817
42100.0,3.2600,7.2700,0.2724
42150.0,1.6500,12.2200,1.3076
42200.0,2.7600,12.9500,0.1907
42250.0,2.1100,11.7500,0.4631
42300.0,1.6100,14.5200,-1.9886
42350.0,-3.9800,17.3100,1.5663
42400.0,-0.9100,9.9600,0.8853
42450.0,3.3800,5.2800,0.4631
42500.0,1.7600,2.6400,0.6538
42550.0,0.1500,2.5600,1.0760
42600.0,2.6000,9.3400,4.3721
42650.0,0.8000,14.6000,7.6274
42700.0,0.0800,7.5500,6.5514
42750.0,-3.0200,16.1700,0.6946
42800.0,2.5300,9.3000,0.9534
42850.0,2.9100,6.2800,-1.8796
42900.0,-2.5300,10.1900,-0.8036
42950.0,2.0700,5.9800,0.9262
43000.0,-0.2300,7.4000,-1.6072
43050.0,2.6400,10.0000,0.6129
43100.0,2.9600,11.7300,2.1112
43150.0,3.4100,13.1000,0.0409
43200.0,1.7300,14.7500,0.7219
43250.0,1.1400,11.7500,-0.9943
43300.0,-3.5700,15.0900,0.5721
43350.0,-0.9100,10.7600,0.6946
43400.0,4.0200,4.9900,-0.0000
43450.0,1.3300,2.1800,-0.0409
43500.0,-0.4200,2.6400,0.9534
43550.0,2.3000,10.8000,6.0202
43600.0,1.1400,15.9800,7.0826
43650.0,0.1100,10.6900,6.7012
43700.0,-3.4100,15.6000,-1.0351
43750.0,2.4100,6.8900,-0.1907
43800.0,1.9900,7.2100,-3.4868
43850.0,-2.3000,9.7000,1.0351
43900.0,0.4200,5.2400,-0.1090
43950.0,2.9800,9.2300,0.2724
44000.0,3.6400,8.8900,0.1907
44050.0,2.3000,12.0300,2.0703
44100.0,3.4900,13.5900,-0.4631
44150.0,1.1800,13.9500,-0.8445
44200.0,-1.7300,13.1000,-0.5312
44250.0,-2.5600,15.5500,1.5391
44300.0,1.6100,9.4300,0.7627
44350.0,3.7200,4.7900,0.1907
44400.0,-0.0400,1.4200,-0.5721
44450.0,-1.1200,4.0200,1.1441
44500.0,2.4900,10.9200,5.4073
44550.0,0.6500,15.7900,8.4310
44600.0,-0.5000,11.3700,5.0940
44650.0,-2.9600,13.8700,0.5721
44700.0,2.9800,8.5400,-1.1850
44750.0,2.5600,6.7400,-3.2961
44800.0,-0.6500,10.8000,1.4165
44850.0,-1.1400,4.2100,-0.2315
44900.0,2.5600,8.2000,-0.1498
44950.0,1.7300,10.5000,0.1090
45000.0,2.2200,12.1500,1.6481
45050.0,3.8700,13.6300,-0.1090
45100.0,1.2300,13.5700,0.1498
45150.0,-0.2700,10.6500,-0.5040
45200.0,-3.5300,15.7500,0.7627
45250.0,-0.8000,12.7900,0.9943
45300.0,-0.8000,12.7900,0.9943
45350.0,2.1800,3.6400,0.5721
45400.0,-0.5000,2.0700,0.6946
45450.0,0.8900,6.8500,4.2495
45500.0,3.6800,14.4800,6.2109
45550.0,-0.5300,13.5300,5.2847
45600.0,-1.6100,10.6100,-0.2315
45650.0,4.2900,10.6500,-1.5255
45700.0,-1.6900,8.2400,-0.6946
45750.0,1.1400,7.3500,2.6423
45800.0,0.3800,3.5700,-2.7513
45850.0,2.1500,10.1500,2.1793
45900.0,2.7900,9.7200,0.6129
45950.0,4.6300,12.5700,-0.1498
46000.0,1.9500,16.4000,1.4574
46050.0,1.3300,10.4200,-0.2996
46100.0,-3.9500,16.0400,-0.5040
46150.0,-0.9100,14.3700,1.4982
46200.0,-0.9100,14.3700,1.4982
46250.0,4.5200,4.1400,0.2724
46300.0,0.6900,1.6500,0.3405
46350.0,0.6900,1.6500,0.3405
46400.0,0.6900,1.6500,0.3405
46450.0,1.1800,16.8200,7.9270
46500.0,0.1500,8.8900,5.1757
46550.0,-1.4600,16.2500,-0.2315
46600.0,3.8700,9.1900,0.1907
46650.0,3.0600,7.1200,-1.5663
46700.0,-1.5700,9.0000,2.3427
46750.0,0.7200,4.7100,-0.8445
46800.0,0.7600,7.8600,0.9534
46850.0,2.5600,7.5500,-0.1090
46900.0,2.7900,11.8400,0.9943
46950.0,2.1500,14.0200,-0.3814
47000.0,1.3100,16.2100,0.5721
47050.0,2.9100,10.5000,-0.9943
47100.0,-4.0200,17.3100,1.1169
47150.0,-0.7600,11.5400,0.7219
47200.0,4.3700,4.2500,0.0817
47250.0,1.4600,2.7200,0.2315
47300.0,-0.5700,2.1100,0.8853
47350.0,2.3400,9.4300,4.2904
47400.0,1.0800,15.4300,7.2460
47450.0,-0.6100,8.0500,6.4016
47500.0,-1.8800,16.9300,0.6129
47550.0,3.6400,8.6900,0.6946
47600.0,1.7600,7.5500,-3.1463
47650.0,-3.6800,9.6200,0.7627
47700.0,2.1100,4.3700,-0.7219
47750.0,0.8400,7.9700,-1.0351
47800.0,2.1800,9.2300,0.6946
47850.0,4.1400,10.7600,1.6481
47900.0,3.1500,13.9900,0.9943
47950.0,2.6400,13.2100,-1.1441
48000.0,-1.3100,15.7900,-1.8387
48050.0,-3.2600,16.2800,2.3427
48100.0,0.9300,9.6200,0.7219
48150.0,3.3000,4.4000,-0.8445
48200.0,0.3800,0.5000,0.0409
48250.0,0.6500,4.5600,3.3370
48300.0,3.1500,13.7200,4.7126
48350.0,0.0400,9.7200,10.6103
48400.0,-2.4500,15.9400,0.0409
48450.0,1.6900,10.0400,-0.0000
48500.0,2.7900,7.6300,-1.6481
48550.0,-3.3600,9.7000,-1.4982
48600.0,2.4100,5.3700,0.7627
48650.0,-0.1900,7.1600,-2.5606
48700.0,2.2600,9.5300,1.7298
48750.0,3.3800,10.9500,1.1441
48800.0,3.6800,12.6400,0.4631
48850.0,1.5700,14.7100,0.4631
48900.0,-0.6500,12.7900,-1.4982
48950.0,-3.7900,16.5500,0.1907
49000.0,-1.1200,11.6500,1.7570
49050.0,4.4400,5.9800,0.3133
49100.0,1.0800,1.7600,0.4222
49150.0,0.0400,1.1200,1.0760
49200.0,2.3400,7.2100,4.9033
49250.0,1.5000,17.7300,7.2733
49300.0,-0.5300,9.5100,6.1292
49350.0,-1.4600,13.8700,-0.5040
49400.0,1.1400,10.3400,0.5721
49450.0,3.8700,8.2000,-1.8387
49500.0,-1.4600,8.5800,1.6889
49550.0,0.9500,4.1400,-0.9534
49600.0,-0.8400,10.1200,-1.1441
49650.0,1.9900,7.9300,0.5040
49700.0,3.6800,10.6100,0.5040
49750.0,3.3800,12.5700,-0.1498
49800.0,1.4200,14.8600,-0.1090
49850.0,-0.8900,11.1400,-0.0409
49900.0,-3.5700,17.1200,-0.2315
49950.0,-0.0800,14.3300,1.2258
50000.0,4.7900,5.7900,-0.2996
50050.0,0.6500,2.3400,0.4222
50100.0,0.0000,0.9900,-0.0409
50150.0,1.0400,6.3600,4.3994
50200.0,2.9100,15.3200,3.9908
50250.0,1.1400,11.0300,11.6045
50300.0,-2.2200,16.1300,-1.1441
50350.0,0.9300,7.4400,0.7219
50400.0,4.1400,10.6100,-2.3427
50450.0,-2.4900,8.8900,0.9943
50500.0,1.1200,4.7900,-0.6538
50550.0,0.3400,9.0800,-2.5606
50600.0,2.7200,8.4300,0.6946
50650.0,2.3700,9.9200,1.3348
50700.0,3.3000,12.5700,0.4631
50750.0,2.5300,15.5100,1.3348
50800.0,1.6500,10.2700,-1.1169
50850.0,-1.8400,14.4100,-0.7627
50900.0,-2.7200,15.0200,1.5391
50950.0,2.7600,7.5500,0.1907
51000.0,2.5600,3.4100,0.8036
51050.0,0.1500,1.9900,0.6946
51100.0,0.7200,5.7900,3.2961
51150.0,4.0200,12.7200,5.3664
51200.0,0.6500,10.2700,11.1823
51250.0,-1.5300,17.4300,-0.5721
51300.0,0.4600,7.8600,1.6072
51350.0,3.9500,9.3400,-2.3018
51400.0,-1.7300,8.7700,-1.1169
51450.0,0.8900,6.2100,0.8445
51500.0,-1.2700,8.6600,-1.6072
51550.0,2.5300,8.7700,0.4631
51600.0,2.9100,11.3700,1.8796
51650.0,4.9400,12.3000,-0.0409
51700.0,0.6900,14.5600,0.9943
51750.0,1.3300,11.7500,-0.4222
51800.0,-2.9800,15.7000,-0.9534
51850.0,-1.9200,13.1800,1.7979
51900.0,2.5300,7.1600,-0.2315
51950.0,2.1800,3.4900,0.7627
52000.0,1.1400,1.3300,0.7219
52050.0,1.8800,7.4000,4.2495
52100.0,1.7600,13.0600,5.8976
52150.0,-0.7600,10.6900,8.8532
52200.0,-1.4600,15.9800,-1.3757
52250.0,3.4500,8.0800,1.0351
52300.0,2.5300,8.4300,-2.8330
52350.0,2.5300,8.4300,-2.8330
52400.0,0.2300,4.6000,-1.3757
52450.0,-0.2700,9.6200,-0.8445
52500.0,2.3700,8.0800,0.5040
52550.0,3.3800,10.2700,1.0351
52600.0,4.9900,14.0600,0.3133
52650.0,1.4200,15.8500,1.1850
52700.0,0.8900,10.2700,-0.7627
52750.0,-2.9800,16.5900,0.8036
52800.0,-0.8900,13.2500,1.4574
52850.0,3.8700,5.1800,0.0409
52900.0,2.1800,2.3700,1.2667
52950.0,0.3100,1.6500,0.1498
53000.0,0.6100,7.5500,4.2904
53050.0,3.0600,15.3200,6.1292
53100.0,-0.3400,8.8900,9.0439
53150.0,-2.5300,17.2000,-0.9943
53200.0,4.2900,9.5300,1.3348
53250.0,1.9900,5.8600,-2.5606
53300.0,-2.1800,9.9600,-0.0000
53350.0,0.6500,4.4000,-1.2258
53400.0,-0.1100,8.8500,-0.3814
53450.0,3.5300,9.7200,0.2724
53500.0,5.0100,11.0300,1.5663
53550.0,4.3700,13.4800,0.5312
53600.0,0.3400,14.7900,-1.0351
53650.0,-1.0800,13.8700,-1.1850
53700.0,-3.7600,14.8200,1.4165
53750.0,1.6100,9.5300,0.2315
53800.0,5.0500,3.4900,0.8036
53850.0,1.4200,1.4200,0.3814
53900.0,-0.8000,2.7900,0.2724
53950.0,-0.5000,12.1100,5.5162
54000.0,0.9300,16.1300,8.3084
54050.0,2.3700,13.1400,4.1406
54100.0,-3.3400,10.6100,1.4982
54150.0,4.2900,9.0000,-1.4982
54200.0,1.5400,8.1600,-2.5334
54250.0,-1.9200,7.5500,2.0703
54300.0,1.3100,5.7100,-2.5334
54350.0,1.9500,9.1900,1.3348
54400.0,3.5700,8.7700,0.2315
54450.0,3.3000,11.8400,1.8387
54500.0,4.7100,14.3700,0.8853
54550.0,1.0800,12.2200,-1.5255
54600.0,-4.0200,15.6000,-2.0294
54650.0,-1.3800,15.5100,2.2610
54700.0,2.9800,9.1500,0.5721
54750.0,1.9900,4.1000,-0.0817
54800.0,-0.5000,1.0400,0.3133
54850.0,0.6500,3.2600,1.3076
54900.0,1.9200,14.1000,6.7012
54950.0,-0.6500,10.8000,8.3901
55000.0,-0.0800,14.6700,2.2201
55050.0,-0.6500,10.2700,1.4574
55100.0,5.3700,8.8900,-1.9205
55150.0,-0.7600,10.3100,-2.0703
55200.0,-0.1100,7.2100,2.4517
55250.0,-0.1900,5.4300,-3.0237
55300.0,1.7300,9.2800,1.7298
55350.0,3.3800,9.4700,0.8853
55400.0,3.8700,12.6000,0.6946
55450.0,3.8300,15.3200,2.1520
55500.0,3.2600,9.9200,-0.1498
55550.0,-1.7300,14.9800,-1.0760
55600.0,-2.0300,13.5700,2.0703
55650.0,2.7600,6.7800,0.0817
55700.0,2.1800,3.4900,0.8853
55750.0,-0.9500,2.4900,-0.1090
55800.0,-0.2700,7.6700,3.5277
55850.0,2.9800,14.6300,8.7306
55900.0,0.5700,8.6900,8.4719
55950.0,-2.4100,16.8600,-1.9477
56000.0,3.7200,9.0400,0.8036
56050.0,1.6900,5.9400,-2.1793
56100.0,-1.4200,9.7000,-0.1498
56150.0,1.8400,5.7500,-0.2315
56200.0,0.5700,8.6200,-0.1907
56250.0,2.3700,8.9600,0.9943
56300.0,4.0200,11.6500,0.9262
56350.0,3.7600,14.7500,1.4574
56400.0,2.7200,12.7600,-0.2996
56450.0,0.1500,12.5300,-0.5721
56500.0,-2.6800,15.8900,1.7979
56550.0,1.3300,10.1500,0.2724
56600.0,3.8700,3.4500,0.1907
56650.0,0.5000,1.8000,-0.3405
56700.0,-1.6100,4.2100,2.1112
56750.0,2.5300,11.5400,5.4073
56800.0,1.1800,13.5700,9.0848
56850.0,0.1500,15.3200,2.4925
56900.0,-0.9900,10.2300,-0.3405
56950.0,3.9500,7.6700,-1.1850
57000.0,-0.1100,9.0400,-2.4925
57050.0,0.9500,6.8900,2.6423
57100.0,-0.6900,5.2800,-2.6423
57150.0,1.7600,9.5300,1.8796
57200.0,4.2900,10.0400,1.0351
57250.0,4.4400,11.9900,0.9262
57300.0,2.1100,15.2800,1.6889
57350.0,2.2200,11.1400,-1.8387
57400.0,2.2200,11.1400,-1.8387
57450.0,-2.3700,13.1400,1.6481
57500.0,4.0200,5.6300,-0.6129
57550.0,2.1800,2.6000,0.3133
57600.0,-0.6100,1.6900,1.1850
57650.0,0.6500,9.1100,5.2847
57700.0,2.7600,15.4300,5.5980
57750.0,0.1100,12.2200,8.8124
57800.0,-2.9600,14.1000,-1.4165
57850.0,3.6800,8.5800,-0.3814
57900.0,2.3000,8.2000,-3.1463
57950.0,-1.5700,8.3100,1.7570
58000.0,0.1100,5.4100,-1.3348
58050.0,2.3700,9.5800,-0.1090
58100.0,3.5700,8.5000,0.9262
58150.0,3.7200,11.3500,2.0294
58200.0,3.0600,14.2900,0.7219
58250.0,2.3400,13.1000,-1.0351
58300.0,2.3400,13.1000,-1.0351
58350.0,-3.4100,15.7000,1.8387
58400.0,0.3800,9.0400,-0.0000
58450.0,3.4500,4.1400,-0.0817
58500.0,-0.0400,1.5000,0.7627
58550.0,1.6100,4.7100,3.0237
58600.0,4.3300,12.2200,5.1349
58650.0,0.5300,11.4100,9.5070
58700.0,-1.2300,14.6700,2.0294
58750.0,-1.0800,12.2600,-0.0409
58800.0,4.0200,7.7000,-0.9126
58850.0,-0.3400,6.2100,-3.3642
58900.0,-0.7200,8.3900,2.3699
58950.0,0.8000,5.2800,-1.7298
59000.0,3.7200,9.8100,1.3757
59050.0,1.8400,9.4300,0.4631
59100.0,3.4500,12.3400,0.8853
59150.0,2.4500,14.9000,0.9943
59200.0,2.3400,12.1800,-1.4982
59250.0,0.1100,13.5700,-2.1793
59300.0,-3.6400,16.8900,2.4517
59350.0,1.2700,7.2100,-0.7219
59400.0,4.5200,2.5300,0.3133
59450.0,0.3400,1.7300,0.0409
59500.0,-0.9900,6.8900,3.5958
59550.0,3.3800,11.8800,5.6252
59600.0,-0.1500,11.8400,10.6920
59650.0,-1.9900,18.2400,-0.5312
59700.0,1.3800,5.9800,-0.1090
59750.0,3.2100,8.0800,-2.5606
59800.0,-0.5700,9.2300,-0.2315
59850.0,0.8400,5.1300,1.0760
59900.0,1.1200,8.0800,-1.7979
59950.0,2.5600,8.7700,0.9943
60000.0,3.1500,11.1100,2.1520
60050.0,3.7900,12.7900,0.2724
60100.0,1.9200,15.6000,0.9943
60150.0,1.4200,11.5400,-1.7298
60200.0,-3.3000,16.3200,0.1907
60250.0,-0.6500,11.8000,1.1169
60300.0,4.6000,3.9900,-0.4631
60350.0,1.6500,1.8000,0.0817
60400.0,-1.5300,2.4500,1.3076
60450.0,1.3100,10.1900,4.8625
60500.0,2.6800,15.8300,7.5048
60550.0,1.6100,10.6900,6.3198
60600.0,-1.6900,15.0900,-1.7979
60650.0,1.9900,6.8900,-0.0817
60700.0,2.0300,8.3500,-3.1463
60750.0,0.0000,8.8500,2.1520
60800.0,0.6900,5.2400,-1.5255
60850.0,0.6900,9.7700,0.8445
60900.0,2.9600,8.5800,0.6538
60950.0,4.2900,11.2200,1.6481
61000.0,4.0600,13.5900,0.7627
61050.0,1.8000,12.7200,-1.8387
61100.0,-1.3800,15.0500,-1.3757
61150.0,-3.0200,16.9700,1.6889
61200.0,-3.0200,16.9700,1.6889
61250.0,2.0700,9.0800,0.0409
61300.0,-0.3000,-0.0400,-0.4631
61350.0,0.0000,4.6000,2.1112
61400.0,0.0000,4.6000,2.1112
61450.0,0.1100,12.3400,11.3049
61500.0,0.7600,15.5100,0.7219
61550.0,0.7600,15.5100,0.7219
61600.0,-0.4200,6.7800,0.2315
61650.0,4.4400,10.6900,-1.5663
61700.0,-0.2700,8.2000,-1.4982
61750.0,-0.1900,6.6300,1.4574
61800.0,0.9500,6.7400,-3.2144
61850.0,3.0600,8.8900,2.6832
61900.0,2.3000,9.5300,0.9262
61950.0,3.5300,11.8800,1.3076
62000.0,3.7900,15.1700,1.8387
62050.0,3.3400,11.0700,-1.5255
62100.0,-1.9200,14.5200,-1.9205
62150.0,-1.6100,15.6600,1.8796
62200.0,3.4500,7.3500,-0.4222
62250.0,3.1500,2.3400,0.5312
62300.0,-0.1500,0.9900,-0.0409
62350.0,0.3800,5.7500,2.5334
62400.0,3.6800,15.6400,5.4345
62450.0,0.5300,10.8800,11.0733
62500.0,0.5300,13.8200,-0.2315
62550.0,-0.7600,11.3700,0.7627
62600.0,4.1000,7.7400,-1.7979
62650.0,-0.6900,8.3900,-2.4517
62700.0,1.5700,7.1200,2.4108
62750.0,0.1500,5.5200,-2.3427
62800.0,1.2300,9.6200,1.5663
62850.0,3.6400,10.3800,1.3757
62900.0,5.6000,11.9200,0.5721
62950.0,2.2600,16.6600,1.3757
63000.0,2.9800,10.9900,-1.3757
63050.0,-2.6000,13.5700,-1.8387
63100.0,-0.9100,14.0600,2.3427
63150.0,3.2100,6.2400,-0.6946
63200.0,1.5000,3.0600,-0.5312
63250.0,-1.4600,2.7200,0.4222
63300.0,-0.7600,7.1600,4.2087
63350.0,6.3600,14.7900,8.2403
63400.0,1.5700,10.5000,9.0030
63450.0,-2.0300,15.6400,-0.7627
63500.0,2.6000,7.3500,0.8853
63550.0,4.1400,8.4700,-3.7865
63600.0,-3.0600,8.3900,1.7570
63650.0,0.9300,5.0900,-0.1498
63700.0,1.8800,8.9200,-0.6129
63750.0,2.7200,8.8900,0.6946
63800.0,3.9900,11.3500,2.1112
63850.0,4.2900,13.8700,-0.0817
63900.0,1.9900,14.9800,0.7219
63950.0,1.4200,11.6500,-1.1850
64000.0,-2.7200,15.7000,0.8853
64050.0,-0.7200,10.8000,0.6538
64100.0,3.2100,3.3400,-0.5040
64150.0,1.3100,2.6400,1.0760
64200.0,-0.7200,10.8400,5.6661
64250.0,3.5700,10.8400,5.6661
64300.0,-0.5000,10.4600,9.4253
64350.0,-0.0400,14.2100,0.8445
64400.0,0.4200,11.5600,-0.4631
64450.0,4.9900,7.2700,-0.2724
64500.0,-0.9500,8.5400,-2.4517
64550.0,0.5700,7.8900,2.2201
64600.0,0.3400,6.0500,-2.5606
64650.0,2.1800,9.0800,0.7627
64700.0,2.9600,11.2200,1.5663
64750.0,4.0200,12.6800,0.6129
64800.0,3.7200,14.8200,1.7570
64850.0,2.9800,10.3400,-1.1850
64900.0,-2.3400,16.6600,-0.4631
64950.0,-0.1900,12.6000,2.1793
65000.0,4.3300,4.7500,-0.3405
65050.0,1.8800,3.7900,0.3405
65100.0,-1.5300,2.5600,-0.1907
65150.0,-0.1100,5.6700,2.3699
65200.0,4.0600,16.0900,6.7012
65250.0,0.3400,9.9600,11.1414
65300.0,0.2300,17.2000,0.2724
65350.0,0.5000,5.6700,0.6538
65400.0,5.0500,9.7200,-1.5663
65450.0,-1.1200,9.3800,-1.6889
65500.0,0.6500,6.7400,1.7570
65550.0,0.5300,4.4800,-3.3642
65600.0,3.4900,9.6200,1.8796
65650.0,3.4900,10.7600,1.0760
65700.0,4.1400,12.8300,0.7627
65750.0,1.9500,16.1300,1.5391
65800.0,-0.3000,12.3700,-0.5040
65850.0,-1.3800,16.4400,1.5663
65900.0,2.5300,11.0700,1.5391
65950.0,4.5200,4.5200,-0.8036
66000.0,0.2300,1.5000,-0.3814
66050.0,-1.0400,2.4500,-0.2996
66100.0,0.3400,8.6900,5.4345
66150.0,3.6000,14.8200,5.9385
66200.0,1.1800,11.5000,9.8475
66250.0,-2.0300,17.2400,-0.3405
66300.0,3.0600,7.3100,0.0817
66350.0,2.2600,6.8500,-2.5606
66400.0,-0.4600,9.6600,1.4165
66450.0,-0.4600,9.6600,1.4165
66500.0,2.0300,8.1200,0.0817
66550.0,3.0600,9.4300,0.8853
66600.0,3.0600,9.4300,0.8853
66650.0,5.9800,11.3000,1.0760
66700.0,3.1700,14.1800,0.4631
66750.0,1.9900,12.0300,-1.7298
66800.0,-1.9500,14.8600,-0.5040
66850.0,-3.3600,15.3200,1.7298
66900.0,3.3800,9.0000,-0.1498
66950.0,4.4400,3.1500,0.8853
67000.0,0.3800,1.8400,0.7219
67050.0,-0.2300,4.0200,2.4925
67100.0,4.4000,12.6000,4.2904
67150.0,0.4600,12.7200,11.9178
67200.0,0.7600,13.2100,-0.9943
67250.0,0.9300,10.3400,1.9886
67300.0,4.7100,8.6200,-1.9205
67350.0,-1.7300,9.1900,-1.6072
67400.0,1.5700,7.2100,1.7979
67450.0,-0.1900,6.0500,-2.9829
67500.0,1.1400,9.6600,2.6832
67550.0,3.4500,9.2800,0.1907
67600.0,5.0500,10.8400,1.3076
67650.0,3.6000,14.7900,1.1850
67700.0,2.1100,11.4500,-1.8796
67750.0,-2.9100,16.7800,-0.2724
67800.0,-2.5300,14.7900,1.9477
67850.0,3.3000,7.0100,-0.7627
67900.0,3.3800,2.2600,0.5040
67950.0,0.6900,1.9500,1.4982
68000.0,0.5300,6.7400,4.0997
68050.0,4.1400,12.7900,4.7535
68100.0,1.3300,9.3400,11.0325
68150.0,-1.7600,17.5400,-0.9943
68200.0,2.8300,9.5300,0.9534
68250.0,1.9200,6.8500,-3.2144
68300.0,-1.4200,10.3100,-0.1907
68350.0,1.9900,5.4800,-0.0817
68400.0,1.1200,8.0100,-1.5255
68450.0,2.8300,9.0000,1.4982
68500.0,4.2900,10.5000,1.8796
68550.0,4.9400,11.8800,0.4631
68600.0,2.9100,14.5200,0.1090
68650.0,1.5700,12.7600,-1.8387
68700.0,-2.9600,17.1200,0.8036
68750.0,-0.8000,11.5400,1.1169
68800.0,4.2100,4.9000,-0.4222
68850.0,1.5000,1.8800,0.8036
68900.0,0.7200,2.6800,1.4165
68950.0,0.8400,9.3000,4.8625
69000.0,2.1800,14.8600,6.0202
69050.0,0.5000,9.1900,8.9622
69100.0,0.1900,16.1700,-1.0760
69150.0,1.5700,8.7700,0.6538
69200.0,4.4400,6.7400,-2.5606
69250.0,-1.9200,10.2700,-0.5040
69300.0,1.3100,6.1700,0.7219
69350.0,1.5700,8.4300,-1.2258
69400.0,3.4100,8.5400,0.8853
69450.0,3.8700,11.6900,2.1793
69500.0,4.4000,14.0600,0.6538
69550.0,2.4100,12.7600,-1.1441
69600.0,-1.2700,14.4100,-1.6481
69650.0,-2.4100,15.6600,2.1793
69700.0,2.1800,8.4700,-0.1498
69750.0,3.6800,2.9600,0.2724
69800.0,0.2300,1.1800,0.5312
69850.0,0.0800,5.0500,2.6015
69900.0,3.5700,12.7200,5.9385
69950.0,-0.2300,11.5400,10.6103
70000.0,0.2700,14.1000,-0.0817
70050.0,-0.8400,10.7600,-2.9556
70100.0,0.2700,6.6300,-2.9556
70150.0,0.2700,6.6300,-2.9556
70200.0,-0.0400,8.8900,2.2201
70250.0,0.0800,5.2200,-2.5334
70300.0,2.7900,9.2800,1.4574
70350.0,3.9100,10.3400,1.4574
70400.0,4.4800,12.8300,0.5721
70450.0,2.4500,14.9400,0.9534
70500.0,3.0600,10.5700,-0.5721
70550.0,-2.4500,15.6600,-1.6072
70600.0,-0.1900,13.1400,2.1112
70650.0,4.3300,5.7100,-0.0000
70700.0,1.8000,2.8700,-0.2315
70750.0,-0.9900,1.9900,0.9262
70800.0,0.3400,6.4400,3.5685
70850.0,5.0500,15.7000,5.4754
70900.0,-0.3000,10.2300,10.0382
70950.0,0.3800,15.7500,-0.6538
71000.0,0.6900,9.9200,0.0817
71050.0,5.4100,7.4000,-2.7513
71100.0,-2.0700,8.8100,-1.2258
71150.0,1.5700,7.1200,2.4517
71200.0,1.3300,6.2400,-2.6015
71250.0,3.2100,7.8600,2.1112
71300.0,2.1800,9.7700,0.4222
71350.0,3.9100,14.2100,0.6538
71400.0,3.9100,14.2100,0.6538
71450.0,4.2100,16.7000,1.3348
71500.0,2.7200,10.1500,-0.5312
71550.0,-2.3700,15.0200,0.7627
71600.0,1.6500,8.7700,0.3133
71650.0,4.3300,3.5700,0.1090
71700.0,0.1100,1.6100,0.4222
71750.0,-1.5700,4.1000,3.2553
71800.0,6.3600,13.3300,4.8216
71850.0,0.8900,12.4500,9.2755
71900.0,0.3800,11.8800,1.3076
71950.0,-0.8000,15.1300,-0.2996
72000.0,4.4000,7.3100,-1.2667
72050.0,1.1400,7.8900,-1.6072
72100.0,1.6900,8.7300,4.0180
72150.0,0.9300,2.8300,-2.0703
72200.0,1.8000,8.7300,1.9477
72250.0,3.1700,9.3800,0.2315
72300.0,5.4300,11.1100,0.0817
72350.0,4.2500,15.2400,2.2610
72400.0,3.7600,11.9200,-1.6889
72450.0,-2.1400,16.1700,-0.6129
72500.0,-1.3300,15.2400,3.0237
72550.0,4.3300,8.0500,-0.2724
72600.0,4.1400,2.3000,0.9262
72650.0,-0.2700,0.0800,1.9886
72700.0,1.1400,3.6800,1.6072
72750.0,3.8300,16.4700,6.8919
72800.0,0.0000,5.9400,8.1177
72850.0,-0.8000,15.9800,1.0760
72900.0,5.6700,10.9500,1.1850
72950.0,2.0700,5.8300,-1.9205
73000.0,-0.9500,9.7200,-0.4222
73050.0,2.7200,3.8300,-0.3405
73100.0,-1.3800,9.6200,-0.7219
73150.0,2.6400,8.2800,1.3076
73200.0,5.4300,9.8900,0.7219
73250.0,4.3700,13.0200,0.7219
73300.0,2.4900,13.9900,-1.6481
73350.0,-1.3800,16.2800,0.6538
73400.0,-0.7600,16.1700,0.7219
73450.0,3.3400,9.5800,-0.0409
73500.0,2.6800,3.9900,-0.7219
73550.0,-1.1200,2.1100,0.8853
73600.0,1.2700,1.4600,0.7627
73650.0,3.5700,9.7200,5.2847
73700.0,1.8000,16.3600,9.0030
73750.0,-0.5700,11.5400,4.4811
73800.0,-0.6500,11.8000,1.0351
73850.0,5.0100,10.7300,-0.6129
73900.0,2.9800,7.4000,-1.9886
73950.0,-0.9100,7.8200,2.5334
74000.0,1.8800,5.0500,-2.4108
74050.0,1.0800,7.7400,0.6946
74100.0,1.5000,8.8500,0.1907
74150.0,6.2100,10.7300,1.1850
74200.0,5.2800,13.3300,0.9534
74250.0,1.9200,14.2900,0.2315
74300.0,-0.3800,12.8300,-1.1441
74350.0,-3.2600,16.5100,0.5721
74400.0,1.6900,11.8800,0.5040
74450.0,4.7900,4.3700,0.2724
74500.0,1.1800,1.5000,0.3405
74550.0,0.0000,2.4100,0.6129
74600.0,0.9900,9.0800,6.2109
74650.0,3.6400,15.7900,6.7829
74700.0,0.9900,9.2300,6.9328
74750.0,-0.6500,16.5100,-1.6481
74800.0,3.8300,8.0800,-0.1498
74850.0,0.7600,7.4000,-3.7865
74900.0,0.9300,7.6700,2.8739
74950.0,0.4200,4.7100,-2.9556
75000.0,2.8700,9.3400,2.0703
75050.0,3.7200,10.2300,1.3348
75100.0,5.1300,12.5300,1.1850
75150.0,2.8700,16.4700,0.9262
75200.0,1.4600,12.4900,-1.3348
75250.0,-2.3000,15.8500,1.3757
75300.0,0.6900,11.0300,0.5721
75350.0,5.0100,4.6300,0.4631
75400.0,1.4200,0.8000,-0.2724
75450.0,-1.6100,1.9900,0.2724
75500.0,2.0300,8.8100,4.1406
75550.0,3.1100,16.8600,10.1199
75600.0,1.0400,10.0000,4.0589
75650.0,-1.3100,15.2100,1.9205
75700.0,5.2200,8.7700,-1.0351
75750.0,2.0700,7.1200,-2.0294
75800.0,-2.4100,8.5800,2.2201
75850.0,2.0300,3.6000,-1.2667
75900.0,3.4500,8.2400,1.9477
75950.0,2.8700,9.0000,0.1090
76000.0,2.8700,9.0000,0.1090
76050.0,4.3700,14.3700,1.0760
76100.0,4.0200,14.7900,-1.6889
76150.0,-2.6000,16.1700,-0.5312
76200.0,-2.6000,16.1700,-0.5312
76250.0,-2.6000,16.1700,-0.5312
76300.0,3.7900,9.1100,-0.6129
76350.0,1.6100,0.5700,-0.0000
76400.0,-0.7200,1.3800,0.3814
76450.0,-0.6900,5.9800,2.6832
76500.0,4.9400,14.0600,6.4016
76550.0,2.0700,9.6200,9.9156
76600.0,-0.3800,17.0800,0.9943
76650.0,1.9200,7.8900,0.7627
76700.0,5.2800,7.3100,-1.7570
76750.0,-0.1900,9.8500,-0.5312
76800.0,0.8400,5.2400,0.9534
76850.0,0.8900,7.6700,-2.8330
76900.0,1.7300,8.8500,1.2667
76950.0,3.5300,8.3900,1.0351
77000.0,6.2400,11.0300,1.0760
77050.0,4.4000,16.3600,1.3348
77100.0,1.8000,12.6800,-1.4165
77150.0,-3.6000,18.3900,-0.8445
77200.0,0.7600,12.0700,1.7298
77250.0,5.4800,6.0900,-0.9943
77300.0,-0.3000,0.8400,-0.2315
77350.0,-2.0300,2.2600,1.3348
77400.0,0.8000,4.2500,2.8739
77450.0,5.4300,14.6300,6.7829
77500.0,1.8400,10.7300,11.3049
77550.0,0.5300,12.4100,0.4222
77600.0,0.3800,12.6400,1.4165
77650.0,5.1300,8.8500,-2.1793
77700.0,-1.4200,7.2100,-1.7298
77750.0,2.1800,7.8600,1.5663
77800.0,0.8000,6.3200,-3.1463
77850.0,3.1700,8.8100,2.1112
77900.0,2.9800,8.5000,1.4165
77950.0,5.7900,10.6900,1.4982
78000.0,5.5600,15.2100,1.2667
78050.0,2.6000,13.3800,-0.9126
78100.0,-0.6500,14.5600,-0.3405
78150.0,-0.9900,15.2400,0.8036
78200.0,5.3300,8.5400,1.0760
78250.0,3.2600,3.6000,-1.5255
78300.0,-3.3000,1.4200,-0.9126
78350.0,-0.1500,5.1800,-0.0000
78400.0,1.1200,8.3900,7.2733
78450.0,5.2800,16.2500,7.5865
78500.0,2.5600,11.2600,6.1700
78550.0,-2.2200,10.9500,0.3405
78600.0,4.7100,11.2600,-1.5663
78650.0,1.6900,8.3500,-2.0294
78700.0,-0.7600,7.4400,2.1112
78750.0,1.9500,5.0900,-1.5663
78800.0,2.9800,8.6900,0.5721
78850.0,3.8300,8.2800,0.8853
78900.0,4.6300,11.1400,1.9886
78950.0,4.1400,14.7100,0.9262
79000.0,4.4800,13.2500,-1.0351
79050.0,-1.2700,14.7900,-1.8796
79100.0,-0.8900,15.3200,2.4517
79150.0,3.4500,8.8500,0.3405
79200.0,3.6000,2.2200,-0.8853
79250.0,-0.5700,1.4600,-0.2996
79300.0,-0.1900,4.3700,1.7570
79350.0,3.0600,12.4100,5.7886
79400.0,1.3800,15.2400,9.1937
79450.0,0.8000,11.0700,3.9090
79500.0,0.8900,14.8600,-1.4574
79550.0,4.8600,8.4700,-0.6946
79600.0,0.6100,7.0600,-1.1441
79650.0,1.2300,8.0800,3.2553
79700.0,2.0700,4.4000,-1.3757
79750.0,2.7600,8.5000,2.6832
79800.0,3.1500,7.9300,-0.2315
79850.0,3.7900,11.4500,0.3405
79900.0,3.8300,14.6000,2.2201
79950.0,5.1300,12.7600,-0.1090
80000.0,-0.4600,14.4800,0.2315
80050.0,3.1100,12.1500,3.1463
80100.0,5.7500,5.7900,-0.9943
80150.0,-0.6100,3.4100,0.8853
80200.0,-0.3400,1.6100,0.3405
80250.0,2.3000,5.4100,2.7649
80300.0,7.3100,16.1300,8.8941
80350.0,1.9500,6.7400,8.4719
80400.0,-1.3300,15.5100,4.0589
80450.0,3.6400,5.6000,-3.8273
80500.0,4.7500,12.9100,-1.3348
80550.0,0.3800,11.2600,1.8387
80600.0,-0.6900,6.5900,0.7627
80650.0,2.4500,2.8700,-2.5606
80700.0,4.2500,9.7000,1.0351
80750.0,4.9000,8.7300,1.1850
80800.0,5.6700,10.8800,0.4222
80850.0,8.3900,14.2900,2.6423
80900.0,4.1000,10.6900,1.4165
80950.0,1.0800,16.5100,0.1498
81000.0,4.1800,12.6800,3.5277
81050.0,3.4100,3.9900,0.5040
81100.0,0.3400,3.0600,-0.0000
81150.0,-1.2300,3.4500,-0.1907
81200.0,0.1900,4.9400,1.6481
81250.0,6.9700,14.7100,9.5070
81300.0,1.4600,7.7800,8.8941
81350.0,-0.1900,14.2900,1.9205
81400.0,2.1100,17.2700,-0.9534
81450.0,-0.9100,5.2400,1.1441
81500.0,4.3700,8.0800,-1.2258
81550.0,6.1300,2.8700,-0.1090
81600.0,0.0400,7.7000,-1.0760
81650.0,0.4600,9.3400,1.4165
81700.0,5.6000,11.3700,1.2667
81750.0,6.6600,13.1400,1.4982
81800.0,6.6600,13.5900,2.4925
81850.0,2.0700,12.3400,-1.2667
81900.0,2.0700,12.3400,-1.2667
81950.0,2.0700,12.3400,-1.2667
82000.0,3.7600,3.4500,-1.8387
82050.0,-0.8900,1.8400,-1.5663
82100.0,-0.9100,3.3800,0.5312
82150.0,1.5400,9.4700,5.5162
82200.0,6.6600,16.2100,10.1199
82250.0,1.8400,9.9200,5.5162
82300.0,1.1400,14.1400,1.0760
82350.0,3.6800,4.3300,-1.7979
82400.0,3.9900,10.9200,-2.3018
82450.0,-0.5000,6.5500,3.7865
82500.0,2.3400,5.0500,-4.0997
82550.0,4.0600,9.2800,2.3699
82600.0,3.6800,9.6200,0.5040
82650.0,5.4300,11.1800,0.3814
82700.0,4.2100,15.0200,1.3348
82750.0,5.2400,12.1500,-1.4982
82800.0,0.0800,13.6300,-1.6889
82850.0,1.5700,14.1400,2.7922
82900.0,3.3000,8.6200,0.2724
82950.0,3.4500,4.0200,0.7219
83000.0,-0.2300,0.9300,-0.6538
83050.0,1.0800,4.1400,2.9148
83100.0,4.6000,13.8700,8.0088
83150.0,0.5300,10.2300,9.8475
83200.0,-0.1100,15.4300,1.9205
83250.0,2.1500,9.4300,-0.7627
83300.0,3.4500,6.5900,-1.3348
83350.0,2.5300,9.2300,-1.7979
83400.0,1.3100,5.6300,2.8330
83450.0,2.2600,7.8600,-2.9148
83500.0,4.0600,8.4700,1.4574
83550.0,4.1400,10.5000,1.9886
83600.0,5.6300,12.9100,0.0409
83650.0,3.6800,13.7200,1.8387
83700.0,4.8200,9.7200,-1.6481
83750.0,-0.9100,16.0400,-0.1090
83800.0,1.5700,13.0200,2.3427
83850.0,5.0500,5.4800,0.5312
83900.0,1.5000,3.2600,-0.0000
83950.0,-0.9100,2.1100,0.3133
84000.0,1.6500,6.0200,5.5571
84050.0,4.9400,15.8900,8.2403
84100.0,-0.0400,7.3100,8.4991
84150.0,0.4600,17.7300,1.7298
84200.0,3.9900,6.1700,-0.4631
84250.0,4.1400,7.0100,-2.2201
84300.0,-0.3000,12.3700,1.3348
84350.0,0.8900,1.9900,0.8853
84400.0,2.0300,9.1500,-1.9205
84450.0,2.1500,7.7800,-0.1090
84500.0,4.3700,11.5000,1.9477
84550.0,5.2200,13.8000,0.5040
84600.0,4.6700,14.8200,0.9262
84650.0,1.8800,12.1500,-1.5255
84700.0,-0.9500,15.8300,2.1793
84750.0,3.4900,9.9600,1.4574
84800.0,4.4000,3.6400,-0.2315
84850.0,0.1900,1.9500,-0.8853
84900.0,-0.2300,1.9200,0.6538
84950.0,2.9600,10.0400,7.0553
85000.0,3.1500,16.3200,7.7772
85050.0,1.5700,11.5600,6.8919
85100.0,0.1100,10.8800,-0.4631
85150.0,4.2100,6.8900,-1.6889
85200.0,1.6900,9.5100,-3.4051
85250.0,-0.4200,8.7700,2.9556
85300.0,-0.4200,4.8200,-2.0703
85350.0,5.5200,9.3000,0.5312
85400.0,4.4000,8.5800,0.9534
85450.0,5.2200,11.4500,1.3757
85500.0,5.0500,14.6000,1.1441
85550.0,4.3300,13.2500,-0.3814
85600.0,0.6500,12.5300,-2.4517
85650.0,-0.6500,15.8900,3.2961
85700.0,2.1100,7.8200,0.0817
85750.0,4.4000,2.9100,0.1090
85800.0,0.3400,1.5400,-0.0409
85850.0,0.0800,5.2800,3.5277
85900.0,4.2900,11.4100,6.4016
85950.0,0.6500,13.2900,10.9235
86000.0,0.3100,13.5700,2.8330
86050.0,1.3300,9.5800,-0.8036
86100.0,5.2400,7.6300,-0.1498
86150.0,2.2600,8.6200,-2.5606
86200.0,0.5300,7.3500,2.5334
86250.0,-0.3000,6.7400,-2.9829
86300.0,2.7600,8.6200,1.7979
86350.0,5.7900,9.8100,1.6889
86400.0,6.0500,11.7500,0.2724
86450.0,4.0200,15.4000,1.1850
86500.0,3.7600,10.4200,-1.5255
86550.0,-1.2300,15.7900,-0.0409
86600.0,0.0000,13.3300,1.5663
86650.0,4.1400,5.8300,-0.6129
86700.0,2.3000,2.4100,-0.0817
86750.0,-0.6900,2.2600,0.5040
86800.0,0.9300,7.1600,4.9442
86850.0,5.4300,15.6600,6.8510
86900.0,-0.0800,9.0400,10.6103
86950.0,-0.6900,16.1700,1.1850
87000.0,2.0700,7.8900,-0.8445
87050.0,2.0700,7.8900,-0.8445
87100.0,-0.2700,9.4300,-1.9886
87150.0,0.3800,7.0600,2.4517
87200.0,0.3800,7.0600,2.4517
87250.0,3.1700,6.9300,-2.9829
87300.0,4.2500,8.5400,0.8445
87350.0,5.0500,10.4600,1.7298
87400.0,5.0100,13.2900,0.9262
87450.0,2.4500,14.6300,1.6889
87500.0,3.8700,10.8000,-2.4925
87550.0,-1.7300,16.0400,1.1169
87600.0,1.1400,12.2200,1.0351
87650.0,4.9400,3.9500,-0.1907
87700.0,0.9900,2.4100,-0.1090
87750.0,-0.6100,2.9800,1.8387
87800.0,3.2100,8.4700,5.8976
87850.0,3.5700,14.5200,8.1586
87900.0,-0.1500,10.9900,8.2812
87950.0,0.1500,15.1700,-1.4574
88000.0,3.5700,6.9700,0.0409
88050.0,2.9600,6.8200,-3.5277
88100.0,0.1500,9.5800,2.7649
88150.0,0.1500,4.8600,-1.4982
88200.0,3.7900,9.7200,0.5721
88250.0,4.1400,8.2400,1.1441
88300.0,5.2800,11.3700,1.8387
88350.0,6.0200,14.8200,0.7627
88400.0,4.4000,13.6700,-1.1850
88450.0,-0.3800,13.0200,-1.5255
88500.0,-0.8400,15.1700,2.2610
88550.0,2.9800,7.3100,-0.5312
88600.0,3.1500,3.0200,-0.1498
88650.0,-0.0400,1.6100,-0.2315
88700.0,-0.1500,5.7500,4.0180
88750.0,4.3700,13.1000,6.8510
88800.0,0.4600,10.5700,9.9565
88850.0,0.2700,13.9500,2.5606
88900.0,1.3100,12.3400,-0.8445
88950.0,4.4400,6.3200,-0.7219
89000.0,0.7600,7.9700,-3.9090
89050.0,1.4600,8.8900,3.2961
89100.0,1.2300,4.7900,-2.8739
89150.0,4.4000,9.4300,2.2201
89200.0,3.8700,9.8100,1.8796
89250.0,5.6700,11.8800,0.7219
89300.0,3.9100,14.4400,1.8796
89350.0,4.7500,10.0000,-1.4982
89400.0,-0.8900,15.9400,-1.3348
89450.0,-0.3400,14.6700,2.4925
89500.0,3.3000,6.2400,-0.7219
89550.0,2.5300,2.4900,0.4222
89600.0,-0.6100,2.3700,0.9943
89650.0,1.5000,6.5100,4.3994
89700.0,4.3700,13.1000,6.5922
89750.0,0.9300,10.6500,10.6920
89800.0,0.3100,16.6600,-0.1907
89850.0,0.8000,7.1200,0.0409
89900.0,4.9000,6.2400,-2.3018
89950.0,0.4600,10.8800,-0.1498
90000.0,1.6900,4.7900,1.1169
90050.0,0.7600,7.7400,-1.7570
90100.0,2.1800,9.0400,1.8796
90150.0,5.5600,10.2300,1.6072
90200.0,6.7400,12.1800,0.3814
90250.0,3.0600,16.0200,1.2667
90300.0,1.8000,11.3700,-1.5663
90350.0,-2.3000,15.9400,1.1169
90400.0,2.1100,12.1800,1.1850
90450.0,4.9900,4.0600,-0.5721
90500.0,0.3100,1.8400,0.4222
90550.0,-0.5000,1.3800,0.4631
90600.0,0.8900,7.7000,5.1757
90650.0,5.0500,16.7800,8.3901
90700.0,0.8400,9.1900,8.1586
90750.0,0.5000,17.3100,0.5312
90800.0,3.1500,5.8300,-0.6946
90850.0,3.7900,6.8900,-2.4517
90900.0,-0.9900,10.6900,3.1054
90950.0,0.9900,4.3300,-0.0817
91000.0,2.1800,8.1600,-0.8445
91050.0,4.2900,8.3500,1.3076
91100.0,6.3200,10.6100,1.4574
91150.0,3.9100,13.5900,1.6481
91200.0,4.6700,12.6800,-0.8036
91250.0,-1.0800,15.2400,-1.4982
91300.0,-0.8900,15.6000,2.4925
91350.0,3.5300,10.6500,0.8445
91400.0,3.1500,4.8200,0.0409
91450.0,-0.1500,1.5400,0.3814
91500.0,0.8900,1.9500,2.1520
91550.0,5.1800,8.8900,7.6955
91600.0,0.4200,13.2900,7.5865
91650.0,0.8400,13.5900,4.7535
91700.0,-0.1500,13.7600,-0.2724
91750.0,5.3300,8.2800,-0.6129
91800.0,2.5300,7.4600,-3.2961
91850.0,0.8400,7.6700,3.5958
91900.0,1.1200,4.8600,-2.1112
91950.0,3.4900,9.7200,2.1520
92000.0,2.6000,9.0400,0.7219
92050.0,6.2800,11.5400,1.0760
92100.0,5.9000,14.2500,1.5391
92150.0,3.3400,10.5300,0.0409
92200.0,3.3400,10.5300,0.0409
92250.0,1.3300,11.9900,0.5312
92300.0,4.4400,3.7200,-0.1090
92350.0,1.0400,1.6500,-0.0817
92400.0,-1.0800,3.6800,1.8387
92450.0,3.8300,11.8400,6.4697
92500.0,1.9900,13.7600,9.1937
92550.0,0.9900,12.7900,3.7592
92600.0,-0.3000,12.6400,-1.1850
92650.0,4.8200,7.0100,-0.4631
92700.0,2.8300,7.4400,-3.2553
92750.0,0.3800,8.6900,3.4459
92800.0,1.1800,5.9400,-2.0703
92850.0,2.8700,9.1900,1.9477
92900.0,3.9500,9.0000,0.6946
92950.0,3.9500,9.0000,0.6946
93000.0,5.0100,14.9800,1.1169
93050.0,4.4000,10.4600,-0.9943
93100.0,4.4000,10.4600,-0.9943
93150.0,-0.5700,14.1400,-0.0000
93200.0,0.1100,14.0200,1.8387
93250.0,4.5200,6.3600,-0.6538
93300.0,2.0700,2.0300,0.0409
93350.0,-0.6500,2.4900,0.1090
93400.0,-0.1900,7.1200,3.9499
93450.0,5.2800,15.7500,7.0553
93500.0,0.3800,10.2700,11.3458
93550.0,1.5000,14.8200,-0.3814
93600.0,0.1900,9.1500,0.5040
93650.0,5.6000,5.6000,-1.7570
93700.0,0.2700,9.3400,-1.5255
93750.0,2.3700,6.0900,1.4165
93800.0,-0.4600,7.8900,1.3348
93850.0,6.8200,10.1200,1.3348
93900.0,6.8200,10.1200,1.3348
93950.0,6.6600,13.5300,0.5312
94000.0,3.5300,14.3300,-0.2724
94050.0,0.3400,12.1100,-1.1441
94100.0,-1.9200,16.1300,1.8387
94150.0,3.3800,8.2000,-1.0760
94200.0,3.4500,2.1500,0.1907
94250.0,-0.3000,1.8000,-0.0000
94300.0,-0.8000,4.7900,2.3699
94350.0,3.5300,12.7200,7.3958
94400.0,0.7600,14.2500,9.8066
94450.0,2.5600,13.1000,4.2087
94500.0,-0.9500,11.5000,-0.9126
94550.0,6.1300,7.4600,-1.1441
94600.0,2.2200,8.1600,-3.1463
94650.0,-0.3800,7.9300,2.9148
94700.0,0.8900,5.6000,-2.9556
94750.0,2.6400,9.5800,2.5606
94800.0,5.7500,8.2800,0.3405
94850.0,5.4300,11.6000,1.2258
94900.0,5.2200,13.9500,1.4574
94950.0,3.3400,11.1100,-1.4574
95000.0,-0.5000,15.7500,-1.0351
95050.0,0.0000,15.4700,3.2144
95100.0,4.6300,6.8500,-0.6946
95150.0,2.6800,1.6900,-0.4631
95200.0,-0.5700,1.5000,-0.2724
95250.0,-0.2300,5.3700,2.4925
95300.0,3.8300,14.4400,5.7069
95350.0,0.6500,13.1800,11.4547
95400.0,1.9200,15.9400,2.1112
95450.0,-1.3100,7.6700,-0.8853
95500.0,5.6300,7.3500,-1.9886
95550.0,0.7200,9.5100,-1.9886
95600.0,0.4200,7.0600,2.5606
95650.0,1.3800,6.4400,-3.1054
95700.0,4.5200,8.5800,2.0703
95750.0,5.4100,9.1500,1.5663
95800.0,5.9400,11.7500,0.8445
95850.0,4.2500,14.7500,1.8796
95900.0,3.9100,10.8400,-1.7298
95950.0,-1.0800,15.4000,-0.5040
96000.0,-0.4200,14.2500,2.8739
96050.0,3.7900,6.5500,-0.7627
96100.0,2.8700,2.1100,-1.1169
96150.0,-0.8900,2.0700,-0.0000
96200.0,-0.6900,7.2100,3.6366
96250.0,5.0100,14.2500,6.6331
96300.0,0.8000,10.4600,11.3049
96350.0,0.8400,13.9900,0.8036
96400.0,1.4200,11.5000,-0.9534
96450.0,3.6400,5.9400,-1.7298
96500.0,-1.6900,9.0400,-2.8739
96550.0,3.4900,6.9300,1.8387
96600.0,2.7200,6.2800,-2.1112
96650.0,2.4900,9.5800,2.5334
96700.0,5.5600,10.9500,1.6889
96750.0,4.3300,12.8300,0.8853
96800.0,3.3000,14.6000,1.7979
96850.0,4.1800,10.5000,-2.3018
96900.0,-2.2600,15.7500,1.4982
96950.0,0.5700,11.5400,1.4982
97000.0,5.9400,3.5700,-0.5040
97050.0,1.7300,1.8400,-0.2996
97100.0,-2.0300,3.2600,0.9262
97150.0,0.8900,10.9900,6.7012
97200.0,3.4900,16.8200,8.0088
97250.0,2.0300,3.9100,7.0145
97300.0,0.6100,17.0800,-2.1112
97350.0,2.6000,7.5500,1.3076
97400.0,0.5000,3.9100,-2.4517
97450.0,2.3000,12.4500,0.5721
97500.0,1.6100,4.2900,-0.2724
97550.0,1.1800,9.0400,0.5721
97600.0,4.2100,8.4300,1.4165
97650.0,5.9000,10.8000,1.2258
97700.0,6.3600,13.9100,1.6481
97750.0,4.5200,11.8000,-1.0760
97800.0,-1.1200,15.2100,-2.0294
97850.0,0.6100,14.7900,3.9499
97900.0,2.9100,8.7300,0.1498
97950.0,2.8700,3.4900,-1.0351
98000.0,-0.4200,2.3400,0.8853
98050.0,-0.9100,5.8600,2.6423
98100.0,2.2600,11.3000,5.7069
98150.0,2.5600,14.5600,10.5694
98200.0,2.7200,11.4100,2.6423
98250.0,-0.5300,11.6500,0.1498
98300.0,5.1300,6.5500,-1.4982
98350.0,2.2200,8.1200,-1.1169
98400.0,1.6100,7.7400,3.4459
98450.0,0.9300,5.3700,-2.3018
98500.0,2.9800,9.0000,1.7979
98550.0,4.0200,10.2300,1.0351
98600.0,5.2800,12.7900,-0.0000
98650.0,5.0100,14.5200,1.8796
98700.0,3.6400,9.2300,-1.1441
98750.0,0.9900,12.9100,-1.3757
98800.0,0.2700,15.7000,3.9499
98850.0,4.3700,7.1600,-0.2996
98900.0,3.4900,2.5300,-0.2996
98950.0,-0.9500,2.4500,0.2315
99000.0,-0.2700,6.3600,4.0997
99050.0,4.9000,14.0200,6.2109
99100.0,1.1200,10.8400,10.9508
99150.0,2.8700,14.5200,-0.1090
99200.0,-0.5300,9.9600,0.7219
99250.0,6.7800,6.7400,-1.7979
99300.0,0.5700,8.7700,-1.5255
99350.0,1.2300,7.9300,3.2961
99400.0,0.9500,5.4100,-2.7922
99450.0,3.6400,8.7300,1.3348
99500.0,3.3400,10.6100,1.9477
99550.0,5.5200,12.3400,0.6946
99600.0,4.4800,14.5200,1.6072
99650.0,4.5600,9.9200,-1.3348
99700.0,-1.3800,15.5100,-0.2315
99750.0,1.2700,13.1000,2.0703
99800.0,1.2700,13.1000,2.0703
99850.0,2.2600,3.1100,-0.0409
99900.0,-0.5700,2.2200,0.1907
99950.0,-0.0800,7.3500,4.6309
100000.0,4.0600,12.8700,6.5922
100050.0,0.2300,13.4800,10.8009
100100.0,2.0300,16.1300,-0.1090
100150.0,0.7200,4.9000,-0.2315
100200.0,7.0800,7.0800,-2.3018
100250.0,0.2700,10.6500,0.7219
100300.0,0.1900,5.9000,1.1441
100350.0,1.1200,7.7000,-1.5255
100400.0,3.4500,8.5800,1.1441
100450.0,4.9400,10.0000,2.4108
100500.0,6.9300,12.1800,0.3405
100550.0,4.6000,14.9000,0.0817
100600.0,0.4600,12.9800,-1.2258
100650.0,-0.7200,15.4700,2.5334
100700.0,1.6100,9.9200,0.7219
100750.0,4.0600,3.9100,-0.9943
100800.0,0.7200,0.7600,0.2315
100850.0,-0.1900,3.4100,1.7570
100900.0,3.1700,10.9500,7.2052
100950.0,1.6500,14.1800,7.6683
101000.0,1.4600,13.5900,5.9793
101050.0,0.1900,12.3400,-1.4982
101100.0,5.4100,7.2700,-0.5312
101150.0,4.1000,7.0100,-2.7513
101200.0,0.3400,9.8500,3.4051
101250.0,-0.5700,4.4000,-1.0760
101300.0,2.7900,8.5000,0.9262
101350.0,1.5700,8.6200,-0.1907
101400.0,6.3200,11.2600,1.1169
101450.0,7.2100,14.1400,0.7627
101500.0,4.7100,14.1000,-0.5312
101550.0,-0.0800,11.7300,-0.9534
101600.0,-1.1200,15.4700,1.3076
101650.0,2.5600,12.1500,0.4222
101700.0,4.6300,3.6000,0.2315
101750.0,0.8900,2.4100,0.3133
101800.0,-0.1100,2.4900,0.3133
101850.0,1.5000,8.2000,6.2109
101900.0,3.4500,15.0500,6.5514
101950.0,0.0000,6.8200,8.9213
102000.0,2.1500,18.4300,-1.5255
102050.0,3.6800,7.2500,-0.0000
102100.0,3.3000,5.2800,-2.4925
102150.0,-0.0400,12.7200,0.4222
102200.0,1.0800,4.4800,0.0409
102250.0,2.1500,7.0600,-1.7979
102300.0,4.9400,8.5800,1.9477
102350.0,5.5200,11.6500,2.7922
102400.0,6.8900,12.5300,0.3814
102450.0,3.1700,12.4500,-1.7979
102500.0,-1.6100,15.8900,-1.0760
102550.0,0.7600,16.4400,2.4108
102600.0,4.1400,8.5400,-1.2258
102650.0,2.9100,1.8400,-0.0817
102700.0,0.5300,0.5700,0.1907
102750.0,0.9300,5.2400,4.3313
102800.0,4.7900,14.6000,4.9442
102850.0,-0.4600,11.9200,9.4661
102900.0,2.9600,17.4300,1.3076
102950.0,0.1900,5.0500,-1.2667
103000.0,6.4700,9.1900,-1.2258
103050.0,1.6100,8.9600,-1.8796
103100.0,-1.0400,6.6600,2.6423
103150.0,0.5300,6.4400,-2.6832
103200.0,4.0200,8.0500,1.9886
103250.0,5.5600,9.4700,1.5663
103300.0,4.7900,11.5000,1.1441
103350.0,4.9400,15.4300,1.5391
103400.0,5.3300,11.8000,-1.9205
103450.0,-1.3300,16.2800,-0.9534
103500.0,0.8400,13.6300,1.6889
103550.0,5.2800,4.9400,-0.8853
103600.0,0.8000,2.1100,-0.0000
103650.0,0.1900,2.6400,0.4631
103700.0,0.6900,7.8200,4.6718
103750.0,4.1400,13.5900,7.2460
103800.0,-2.7200,10.9200,7.1234
103850.0,0.5700,16.5900,4.0589
103900.0,4.0200,8.1600,-1.9477
103950.0,5.4300,7.8900,0.0409
104000.0,4.4000,6.5100,0.2724
104050.0,0.0400,8.2800,2.0294
104100.0,-1.2700,6.7800,-0.6946
104150.0,3.4100,8.5800,-0.4631
104200.0,2.7900,10.1900,1.7298
104250.0,3.8700,11.8800,0.0817
104300.0,3.5700,13.6700,1.9886
104350.0,6.5500,13.0600,-1.1169
104400.0,-1.0400,13.5300,-3.0237
104450.0,1.7300,13.9900,2.7241
104500.0,3.5700,5.6300,-0.2315
104550.0,2.5600,2.7600,0.5312
104600.0,-0.0800,1.4600,0.6946
104650.0,1.1200,5.5600,4.2904
104700.0,6.2400,13.0200,9.0439
104750.0,0.3800,9.8500,9.2346
104800.0,-0.4600,13.0200,1.9477
104850.0,1.6100,11.4100,0.5721
104900.0,3.7200,6.2800,-0.6538
104950.0,3.9100,7.7400,-3.7865
105000.0,0.5300,8.9200,4.3313
105050.0,0.9500,5.0100,-3.3642
105100.0,6.2800,8.9200,2.7922
105150.0,3.8700,8.8100,1.7298
105200.0,5.2800,11.4100,1.0760
105250.0,4.5600,14.2500,2.0294
105300.0,4.6000,11.5000,-1.4165
105350.0,-1.5700,14.2900,-1.5663
105400.0,1.0400,15.8900,2.7241
105450.0,4.9400,5.5600,-0.3814
105500.0,2.7600,2.3700,0.6129
105550.0,-0.8900,2.3400,0.1498
105600.0,0.4600,5.7900,3.9090
105650.0,5.7900,12.5700,6.0474
105700.0,0.1100,10.9900,10.3787
105750.0,1.5700,9.8900,-0.5040
105800.0,1.5700,9.8900,-0.5040
105850.0,1.5700,9.8900,-0.5040
105900.0,5.2200,7.7400,-0.9126
105950.0,0.0800,9.7200,-1.0351
106000.0,-0.9900,5.9800,1.1169
106050.0,3.6400,7.2700,-1.1169
106100.0,5.1800,7.6700,0.5040
106150.0,3.6800,11.0300,2.7649
106200.0,5.2200,12.4100,0.6538
106250.0,4.7500,14.3700,0.8445
106300.0,3.8700,11.9200,-0.9534
106350.0,-0.6500,16.2500,1.4982
106400.0,2.8700,10.6500,0.8853
106450.0,4.0600,4.1400,-0.8445
106500.0,0.3100,2.0300,-0.2996
106550.0,-0.3800,3.4100,0.7627
106600.0,0.8000,8.8900,4.9442
106650.0,3.7200,14.6000,7.6274
106700.0,0.1100,8.7300,9.1937
106750.0,1.8400,17.4700,0.9534
106800.0,0.8400,7.2500,-0.4222
106850.0,6.5100,7.0600,-1.8387
106900.0,0.9900,10.4200,0.0817
106950.0,1.5400,5.3700,1.5663
107000.0,0.9900,7.0800,-2.6015
107050.0,2.9100,8.9600,1.9477
107100.0,4.6700,10.0000,2.4108
107150.0,4.6700,10.0000,2.4108
107200.0,4.4800,14.8200,0.1498
107250.0,0.8400,12.1800,-1.1850
107300.0,-0.4600,16.7400,1.3076
107350.0,2.4900,12.0700,0.9534
107400.0,3.8300,4.2100,-0.8036
107450.0,0.0800,1.7600,0.8853
107500.0,1.3300,3.1700,1.7979
107550.0,3.2600,10.3400,6.8510
107600.0,1.5400,16.2500,8.4719
107650.0,0.9500,8.0100,6.2109
107700.0,1.4600,14.7900,1.3757
107750.0,4.7500,7.7800,-0.2315
107800.0,3.3400,6.6600,-2.8739
107850.0,-0.8900,10.1500,2.3699
107900.0,1.7300,4.3700,-1.3348
107950.0,2.8300,7.6700,0.1907
108000.0,2.5300,9.2300,0.9262
108050.0,2.5300,9.2300,0.9262
108100.0,5.5600,12.4900,-0.1907
108150.0,4.1800,14.0600,-0.0409
108200.0,-0.1100,14.3700,0.1907
108250.0,2.9100,15.0500,3.1054
108300.0,5.8300,10.1900,1.6889
108350.0,1.7600,4.2100,-0.3405
108400.0,-0.5000,2.3000,-0.1907
108450.0,0.8400,2.5300,0.5040
108500.0,1.9900,6.4400,4.7535
108550.0,3.3000,17.4300,8.2403
108600.0,0.1100,11.5000,9.4661
108650.0,1.0400,11.0300,0.1907
108700.0,6.9700,8.5800,-1.3076
108750.0,4.0600,10.0800,-2.4925
108800.0,-3.6000,9.7200,4.3721
108850.0,2.1500,4.8600,-0.0409
108900.0,4.9900,6.2400,-0.3814
108950.0,5.4800,5.8600,1.4574
109000.0,2.1800,10.6900,1.8796
109050.0,5.5200,13.0600,1.2258
109100.0,5.4100,15.2800,1.2667
109150.0,3.4500,10.8000,-1.0760
109200.0,-0.2300,14.6700,0.0817
109250.0,3.4900,13.6300,2.8330
109300.0,4.3300,3.6000,-1.2258
109350.0,0.8400,2.2200,1.1441
109400.0,-1.3100,2.0300,1.1850
109450.0,2.7900,6.6300,3.9090
109500.0,4.7500,17.2700,9.2755
109550.0,0.5700,6.6600,8.6217
109600.0,1.1400,16.8200,1.1850
109650.0,3.4500,7.5000,-0.6538
109700.0,6.0200,6.5100,-1.7298
109750.0,-0.9900,9.6600,0.4222
109800.0,0.8400,5.9400,2.2610
109850.0,2.5300,6.8200,-0.8036
109900.0,4.8600,7.8600,0.3405
109950.0,2.9800,10.9200,1.9205
110000.0,6.6600,12.8300,0.5312
110050.0,4.5200,15.0500,1.7298
110100.0,3.5700,9.9600,-3.1054
110150.0,-0.8900,14.7900,0.4631
110200.0,1.6900,15.1300,2.1793
110250.0,4.6700,4.0600,-1.3076
110300.0,0.5300,1.8400,0.6129
110350.0,-0.7200,2.4900,1.3757
110400.0,2.4100,6.0200,4.6309
110450.0,5.1300,17.3500,8.4310
110500.0,-0.5700,3.7600,9.6977
110550.0,2.0300,16.8600,0.8036
110600.0,3.6000,9.5300,-0.2996
110650.0,4.5600,6.1700,-0.4222
110700.0,0.9900,9.9600,-1.7979
110750.0,1.8000,7.0100,2.7922
110800.0,1.3100,5.5200,-2.3699
110850.0,1.3100,5.5200,-2.3699
110900.0,4.0600,7.9300,0.9534
110950.0,4.1400,11.4100,2.5334
111000.0,6.7000,11.9900,0.1498
111050.0,4.2500,15.2800,0.6946
111100.0,3.1500,10.6100,-2.2201
111150.0,-0.4600,14.2500,1.1441
111200.0,1.0800,13.4400,1.5391
111250.0,4.7500,3.7200,-0.8036
111300.0,1.8000,2.4100,0.9534
111350.0,-0.3800,2.3000,1.3757
111400.0,1.2300,6.3600,4.7535
111450.0,6.2800,14.9000,7.1234
111500.0,-0.2700,9.8900,11.4547
111550.0,3.4100,16.6600,0.1090
111600.0,0.4200,6.7800,-0.5040
111650.0,0.4200,6.7800,-0.5040
111700.0,1.1400,10.6100,0.7627
111750.0,1.0800,5.2400,1.4982
111800.0,2.3400,5.6000,-2.0703
111850.0,5.2400,8.6600,2.4108
111900.0,3.6800,10.0000,2.4925
111950.0,6.1300,11.3500,0.5721
112000.0,5.2400,15.4000,1.4165
112050.0,3.1700,11.1800,-1.3757
112100.0,-0.8900,13.4400,-0.5721
112150.0,2.2600,15.2800,2.5334
112200.0,4.6700,5.9800,0.1498
112250.0,1.8800,1.2300,0.3405
112300.0,-0.3000,1.6900,0.3133
112350.0,0.1900,5.9000,3.5277
112400.0,5.4100,12.6800,6.7829
112450.0,-0.2700,13.8000,10.4604
112500.0,3.9900,14.9000,2.7649
112550.0,0.5300,6.2400,-0.6129
112600.0,6.7800,7.3500,-1.0760
112650.0,2.7600,10.9500,0.9262
112700.0,1.0400,6.2800,3.2144
112750.0,3.0200,4.4800,-2.0294
112800.0,2.9800,8.2000,1.9886
112850.0,2.7200,7.9700,0.9943
112900.0,4.6000,10.3400,0.7627
112950.0,6.0200,13.6700,1.5663
113000.0,6.0500,16.1300,0.4222
113050.0,0.6900,10.6900,-1.4982
113100.0,0.0400,14.7100,2.3427
113150.0,5.6300,8.6900,0.7219
113200.0,3.1100,2.4900,0.2315
113250.0,-0.0400,2.6400,-0.2724
113300.0,-1.2300,4.1800,1.8387
113350.0,2.4500,8.6900,5.7478
113400.0,4.0200,13.2900,10.1880
113450.0,3.4100,10.9200,4.6037
113500.0,0.5700,11.7500,1.5663
113550.0,5.6000,9.0800,0.4631
113600.0,2.6000,8.7700,-1.8796
113650.0,0.8900,8.2000,3.8682
113700.0,2.3000,3.8700,-2.3427
113750.0,2.7600,8.0800,1.7979
113800.0,4.1400,8.0100,1.1850
113850.0,5.7100,10.3800,1.9477
113900.0,5.4100,12.4100,0.7627
113950.0,4.7500,14.4800,1.4982
114000.0,3.0200,12.1100,-2.3427
114050.0,-1.0800,15.3200,1.8796
114100.0,3.4100,11.8400,1.4165
114150.0,4.2900,3.3800,-0.6946
114200.0,0.1100,3.4900,0.6129
114250.0,-0.0400,3.6800,1.7570
114300.0,2.4500,6.5900,4.8216
114350.0,5.2400,15.4700,8.7715
114400.0,-0.8000,9.3400,8.9213
114450.0,1.6500,15.0200,0.8036
114500.0,4.1000,6.3200,0.0817
114550.0,5.4100,6.2100,-3.2553
114600.0,0.2700,11.4500,4.0997
114650.0,2.0700,4.1000,0.2315
114700.0,3.7200,6.4000,-1.1169
114750.0,4.1800,9.0000,1.4982
114800.0,5.4300,9.9600,1.2258
114850.0,7.0100,12.8300,0.1090
114900.0,6.4000,13.8000,1.7298
114950.0,5.5600,11.0300,-1.5255
115000.0,0.9500,14.5200,0.2724
115050.0,3.7900,12.3700,2.6015
115100.0,5.0100,3.6400,-0.5040
115150.0,-0.5000,3.1500,0.4222
115200.0,0.3800,2.5600,0.7627
115250.0,3.6800,4.2500,4.4402
115300.0,7.4600,13.5300,8.3901
115350.0,-0.6100,9.6200,9.5070
115400.0,2.4100,14.6300,3.1735
115450.0,5.4800,7.0800,-1.5663
115500.0,3.9500,10.7300,-0.0817
115550.0,0.8400,6.6600,1.4982
115600.0,0.7600,7.2700,1.7979
115650.0,1.9900,5.4100,-2.5334
115700.0,4.1800,8.7300,1.8796
115750.0,5.0500,9.2300,0.5312
115800.0,5.9400,12.1500,0.5721
115850.0,7.4400,13.2900,3.2961
115900.0,5.6700,7.5500,-0.1498
115950.0,0.7200,16.8600,-0.0000
116000.0,3.9500,13.8200,4.0997
116050.0,4.4800,5.2800,-0.0409
116100.0,2.0300,1.4600,-0.7627
116150.0,-0.9900,1.9500,0.2724
116200.0,1.5000,5.1300,4.1406
116250.0,8.9600,13.6300,8.0769
116300.0,-1.1400,9.7700,9.1529
116350.0,1.8800,14.0200,1.9477
116400.0,3.9100,11.4100,-1.9205
116450.0,1.9200,8.1600,1.6889
116500.0,1.6100,8.7700,-1.5663
116550.0,4.5200,4.9000,0.8445
116600.0,1.7600,7.0600,-2.4925
116650.0,4.6700,7.7000,3.2553
116700.0,5.4100,8.3500,2.0703
116750.0,5.2200,13.1800,2.1793
116800.0,6.7400,11.8800,2.1520
116850.0,4.9400,11.4500,-1.3348
116900.0,0.2700,18.4700,1.0760
116950.0,5.4800,11.3000,3.9499
117000.0,6.2400,2.4900,-1.2258
117050.0,-0.9500,1.0400,-1.2258
117100.0,-0.5300,1.0800,0.8445
117150.0,3.4500,9.9200,5.5162
117200.0,3.3000,15.5100,9.3436
117250.0,1.7300,6.0200,5.2847
117300.0,1.4200,18.0500,1.9205
117350.0,5.9800,5.7500,-1.0351
117400.0,3.5300,6.3600,-1.6889
117450.0,1.2700,10.8000,3.0237
117500.0,0.3800,2.9100,-1.9205
117550.0,4.5200,9.4300,1.9477
117600.0,3.8300,8.0100,1.9477
117650.0,3.8300,8.0100,1.9477
117700.0,6.5500,10.9200,1.1441
117750.0,5.3700,14.6000,1.8387
117800.0,6.5100,11.3700,-1.2667
117850.0,-0.9500,15.6400,-1.9205
117900.0,3.9100,13.2500,2.9556
117950.0,4.9900,4.7100,-0.8036
118000.0,0.9900,1.7600,-0.3405
118050.0,0.3800,2.0700,0.0409
118100.0,1.6900,6.4000,5.4073
118150.0,4.2900,15.6600,7.6274
118200.0,0.7200,8.8900,7.5865
118250.0,1.8400,15.5100,-0.4631
118300.0,6.2800,6.5500,-1.0351
118350.0,2.7600,8.7300,-3.5958
118400.0,-0.5300,8.6600,3.4459
118450.0,0.1500,5.2800,-4.5220
118500.0,5.9400,7.8600,2.9556
118550.0,6.9700,8.3900,2.1793
118600.0,6.5500,10.9900,1.3076
118650.0,4.6700,13.8700,1.4982
118700.0,5.5200,11.5000,-1.7298
118750.0,-0.6100,16.6300,-1.6481
118800.0,4.1400,15.4000,3.5685
118850.0,5.6300,6.3200,-0.2996
118900.0,1.2300,2.6400,-0.9126
118950.0,-0.1100,1.5400,-0.5721
119000.0,0.3400,3.9100,3.4051
119050.0,4.9900,12.4100,6.6604
119100.0,1.9200,13.1400,10.2697
119150.0,1.0800,8.8500,3.6775
119200.0,2.7200,16.7000,0.8445
119250.0,4.9400,6.8200,-0.8445
119300.0,2.5300,8.1200,-1.7979
119350.0,0.7600,10.3400,2.7241
119400.0,-0.8900,4.0200,-1.2667
119450.0,6.6600,6.9300,0.5040
119500.0,6.3200,8.0800,2.6015
119550.0,5.4300,10.3100,1.9886
119600.0,5.6700,12.3400,1.1169
119650.0,6.4400,14.3300,-0.1907
119700.0,0.6900,14.4800,-1.1169
119750.0,2.1800,15.6000,2.6832
119800.0,5.3300,8.9600,0.7627
119850.0,3.0200,3.3000,-0.5312
119900.0,-0.7200,1.8000,-0.2315
119950.0,0.4200,2.9100,1.3076
120000.0,2.5300,9.5100,6.8919
120050.0,2.4900,16.7000,7.2052
120100.0,-0.1100,9.7700,7.7772
120150.0,0.6500,15.8900,1.6072
120200.0,5.1300,6.4000,-1.4574
120250.0,7.3500,7.3100,-1.7298
120300.0,0.0000,10.7300,2.0294
120350.0,-1.3100,5.4100,1.4982
120400.0,4.0200,8.0800,-1.2667
120450.0,4.8600,7.4400,1.4165
120500.0,5.5600,9.6600,2.1112
120550.0,6.3600,11.6000,0.3405
120600.0,4.7900,14.5600,2.4108
120650.0,5.8300,10.9200,-2.2201
120700.0,-0.9100,15.4000,0.1498
120750.0,0.2700,14.2900,2.1112
120800.0,4.1000,4.4400,-1.5663
120850.0,2.1100,1.3300,0.6129
120900.0,0.2300,2.4500,1.4982
120950.0,2.5300,7.5000,6.0474
121000.0,5.6700,14.4400,8.1586
121050.0,-0.3800,9.4300,9.5342
121100.0,0.3800,16.9300,1.7570
121150.0,3.3000,6.3600,-1.6481
121200.0,4.7900,8.5800,-0.9534
121250.0,2.7900,9.1900,-0.0409
121300.0,-0.7600,5.9400,1.7570
121350.0,2.6800,7.4400,-2.8739
121400.0,4.5200,7.6300,1.7570
121450.0,6.5100,9.5100,3.0237
121500.0,6.8900,11.8000,1.1850
121550.0,5.9000,14.7100,1.6889
121600.0,4.0200,10.3800,-2.1793
121650.0,-0.5300,16.7800,0.3133
121700.0,2.3000,12.0300,1.6889
121750.0,4.6700,4.4000,-1.3757
121800.0,0.4600,1.5000,0.1498
121850.0,-0.0400,2.3000,1.7570
121900.0,3.1700,8.0100,5.8295
121950.0,3.1100,16.7000,7.8862
122000.0,0.0400,11.9900,8.8532
122050.0,0.2700,13.2500,-0.2996
122100.0,5.1800,7.0100,-1.9886
122150.0,7.4400,8.6900,-2.6015
122200.0,-1.9900,9.8500,3.5958
122250.0,0.4200,5.2400,-0.2315
122300.0,5.3300,7.0100,-1.3348
122350.0,5.0100,7.4600,1.8796
122400.0,5.2800,10.7300,2.3018
122450.0,4.9900,12.8300,1.0760
122500.0,6.0200,14.4800,1.0351
122550.0,3.4900,11.5400,-0.9943
122600.0,0.6900,15.4000,0.7219
122650.0,0.6900,15.4000,0.7219
122700.0,6.0500,8.0500,0.1907
122750.0,1.5400,3.3400,-1.7570
122800.0,-1.2300,2.6000,-0.1907
122850.0,-0.3400,4.0200,2.6015
122900.0,5.2400,11.6500,6.8510
122950.0,1.3300,13.4800,10.5285
123000.0,3.3800,13.2500,4.5220
123050.0,2.3400,10.0400,-0.0817
123100.0,2.3400,10.0400,-0.0817
123150.0,6.2400,7.6700,-2.4517
123200.0,-1.2300,11.1100,2.7241
123250.0,0.3400,5.1800,-1.5663
123300.0,3.5300,9.7000,-0.4631
123350.0,4.1000,7.7800,1.0760
123400.0,6.6300,9.5800,1.9886
123450.0,6.1300,12.6000,1.4574
123500.0,6.1300,12.6000,1.4574
123550.0,0.6900,16.7800,-0.0409
123600.0,3.3400,16.3200,3.4868
123650.0,5.5200,7.8200,0.1090
123700.0,1.9500,2.3700,-2.0703
123750.0,-1.1400,1.8800,-0.0000
123800.0,0.5300,3.5700,2.5334
123850.0,4.0600,9.7700,6.8238
123900.0,2.8300,16.1700,9.1120
123950.0,1.8800,6.4000,7.4367
124000.0,2.1800,15.7900,0.3133
124050.0,3.9900,6.6300,0.1090
124100.0,2.9600,8.7700,-2.1384
124150.0,0.6100,10.9200,3.2144
124200.0,1.2300,3.6400,-0.4222
124250.0,4.3700,6.8500,-1.3757
124300.0,3.7200,7.6300,1.1441
124350.0,5.4300,10.8800,3.3370
124400.0,6.8200,12.1500,0.9534
124450.0,5.7100,12.5300,1.3348
124500.0,2.1100,14.6700,-0.5312
124550.0,1.6100,16.1700,3.5277
124600.0,3.3800,10.5700,1.2667
124650.0,3.0200,2.2200,-1.1441
124700.0,-0.0800,0.9300,0.1090
124750.0,1.5400,2.4900,1.6481
124800.0,2.2600,9.2800,7.2733
124850.0,2.9600,16.7000,6.8238
124900.0,0.7200,9.8500,9.6568
124950.0,1.3300,15.4000,-0.3814
125000.0,4.4800,6.5100,-0.5721
125050.0,4.7100,8.5800,-1.8796
125100.0,-0.7200,9.7200,2.5606
125150.0,-0.0800,4.7100,-1.0351
125200.0,4.5200,8.0100,-1.0760
125250.0,4.5200,8.1600,1.6481
125300.0,5.6000,9.9600,2.3018
125350.0,6.8200,12.1800,0.7627
125400.0,5.5200,13.5300,0.8445
125450.0,2.7900,12.7200,-2.3699
125500.0,-0.2300,17.6900,3.4459
125550.0,2.0300,11.6900,1.1850
125600.0,6.1700,1.1800,-0.2315
125650.0,1.4600,0.1500,0.6129
125700.0,-0.0400,1.6100,0.3133
125750.0,1.9200,11.4500,7.8181
125800.0,1.3100,16.5900,8.4719
125850.0,0.8900,3.6800,5.3256
125900.0,2.2200,19.0000,2.2201
125950.0,7.4400,6.2400,-0.0409
126000.0,1.7300,5.3300,-2.7922
126050.0,0.1900,12.9100,2.6015
126100.0,-0.1100,3.9100,-1.4165
126150.0,4.4400,7.1200,0.7627
126200.0,4.3300,6.6600,0.9943
126250.0,5.9800,11.4500,2.7649
126300.0,6.5900,13.5900,1.3757
126350.0,6.0200,13.3800,-1.0351
126400.0,0.2700,15.3600,-0.5040
126450.0,1.1400,16.3600,3.8682
126500.0,5.3300,7.1600,-0.2724
126550.0,2.8700,0.8900,-1.1850
126600.0,-0.3000,1.1800,-0.5721
126650.0,1.1800,3.7600,2.1112
126700.0,3.4900,13.5900,7.9270
126750.0,0.3800,12.2200,10.0791
126800.0,2.5300,13.0200,4.3994
126850.0,2.4900,10.2700,-1.3076
126900.0,5.3300,6.0900,-0.3405
126950.0,2.4900,8.3500,-3.7184
127000.0,0.7600,8.9200,4.7944
127050.0,0.4200,4.8200,-4.3721
127100.0,3.9500,9.6600,2.7922
127150.0,5.4300,8.4300,2.1112
127200.0,7.0600,10.5300,2.0294
127250.0,7.3500,12.4900,1.5663
127300.0,4.2900,10.0800,-0.9534
127350.0,0.1100,18.4300,-1.1169
127400.0,1.9500,14.9400,3.5958
127450.0,5.2400,6.3200,-0.3405
127500.0,2.2600,1.3800,-1.6072
127550.0,-0.1900,1.9200,-0.2724
127600.0,1.8400,5.3700,3.5277
127650.0,3.0600,13.3800,7.2733
127700.0,-0.5300,11.3500,9.3027
127750.0,3.3400,13.9500,5.7886
127800.0,2.0700,10.6500,-1.7979
127850.0,6.5500,6.5100,0.1907
127900.0,2.1800,9.2800,-3.2961
127950.0,-0.5300,8.0800,4.0997
128000.0,0.4200,4.8200,-4.5628
128050.0,4.3700,9.1100,2.5334
128100.0,5.2400,8.6600,2.3427
128150.0,5.9800,11.3500,1.2258
128200.0,5.7900,12.6800,1.5391
128250.0,6.8200,10.8800,-1.1169
128300.0,-0.0800,16.8200,-0.9126
128350.0,1.8400,15.0900,3.5685
128400.0,4.5600,6.7400,-0.3405
128450.0,1.8800,1.8800,-0.9534
128500.0,-0.2700,1.9200,0.1090
128550.0,0.6100,4.3300,2.3018
128600.0,3.1700,11.8400,7.9270
128650.0,1.3800,14.5200,8.9213
128700.0,1.1800,10.0000,6.4697
128750.0,1.3300,13.9100,-0.3405
128800.0,5.7500,7.2500,0.0409
128850.0,2.1500,10.3800,-2.9148
128900.0,-0.2700,7.0100,3.2144
128950.0,1.7600,6.5100,-4.0997
129000.0,5.6700,8.1600,2.9829
129050.0,6.5100,8.5000,2.1793
129100.0,6.1700,10.6900,1.4574
129150.0,5.2200,14.6300,1.7298
129200.0,5.7900,10.8400,-1.7570
129250.0,-0.1500,16.7400,-0.2724
129300.0,1.0800,13.5700,2.6832
129350.0,5.3700,4.8600,-1.2667
129400.0,1.6100,1.1200,4.6037
129450.0,0.4200,7.3500,4.6037
129500.0,0.4200,7.3500,4.6037
129550.0,5.7100,15.1700,5.8295
129600.0,-1.2300,7.4600,10.3378
129650.0,2.9600,16.7000,3.4868
129700.0,2.2200,5.2800,-0.4631
129750.0,4.4000,4.7500,-2.8739
129800.0,4.4000,4.7500,-2.8739
129850.0,0.5000,4.2900,0.8445
129900.0,3.3400,8.2800,-1.9886
129950.0,3.3400,8.2800,-1.9886
130000.0,4.4800,8.3900,1.3348
130050.0,6.6300,9.5800,2.4108
130100.0,7.2500,12.7900,1.6072
130150.0,5.3300,13.2900,-1.0351
130200.0,0.6100,14.4100,-1.9205
130250.0,0.4600,16.0400,3.2144
130300.0,4.2900,7.8900,-0.3814
130350.0,3.3000,2.3700,-0.5312
130400.0,-0.2700,1.6100,-0.1090
130450.0,1.1800,3.7600,1.9477
130500.0,3.4500,12.3700,7.8862
130550.0,0.3400,14.8200,8.0769
130600.0,2.5600,14.2500,5.1349
130650.0,0.6900,9.1900,-0.7219
130700.0,6.9700,6.5900,-1.5255
130750.0,3.8300,9.7000,-1.9886
130800.0,-1.1200,8.5000,4.0997
130850.0,0.4600,4.2100,-2.9148
130900.0,4.8600,9.0000,2.0703
130950.0,5.7900,8.2400,1.0760
131000.0,5.4100,10.7300,1.0351
131050.0,7.0100,14.2100,1.9886
131100.0,7.0800,11.9600,-1.2667
131150.0,-0.6500,15.4700,-2.7922
131200.0,1.1800,15.6600,5.0123
131250.0,3.6800,7.6300,-1.2667
131300.0,2.3000,1.1200,-0.9943
131350.0,0.1900,2.3000,0.1907
131400.0,0.3100,4.9900,4.2087
131450.0,5.5200,11.1100,7.4367
131500.0,1.0400,13.5900,9.4253
131550.0,1.9900,10.3400,4.2495
131600.0,3.1100,12.4900,-0.0817
131650.0,4.8200,6.5900,-1.1850
131700.0,3.8300,9.9600,-2.1112
131750.0,0.8000,9.7700,4.2495
131800.0,-1.3300,4.2900,-3.2553
131850.0,5.6700,8.2000,1.3348
131900.0,5.2200,8.2400,2.1112
131950.0,5.7900,11.2200,2.1793
132000.0,5.9000,12.7900,1.2258
132050.0,5.2200,12.8300,0.0817
132100.0,1.6900,13.2100,-3.3370
132150.0,1.5000,16.2500,3.8273
132200.0,5.0900,8.6200,0.6538
132250.0,3.3800,2.4500,-0.1498
132300.0,0.0800,2.4900,-0.2724
132350.0,-0.5700,3.8300,1.6072
132400.0,2.5300,9.7700,5.8976
132450.0,4.0600,16.2800,8.7715
132500.0,0.6900,6.4700,8.1586
132550.0,2.1100,18.0100,0.5040
132600.0,5.2400,4.4000,-0.3405
132650.0,2.3000,5.8600,-3.3642
132700.0,-0.2300,11.9200,3.2961
132750.0,2.0300,4.4000,-1.7570
132800.0,4.9000,8.5400,1.6889
132850.0,4.6000,7.4600,0.9262
132900.0,6.0900,10.1200,2.1793
132950.0,6.5100,12.4500,0.9262
133000.0,4.2900,14.1400,0.6129
133050.0,2.9100,12.4900,-1.7298
133100.0,1.1800,16.2500,3.4051
133150.0,2.6800,10.3800,0.1498
133200.0,3.8700,2.6800,-0.8036
133250.0,-0.1500,1.2300,-0.1907
133300.0,-0.0400,3.1100,1.8796
133350.0,2.9100,10.5700,7.4367
133400.0,1.6500,15.4000,8.0496
133450.0,1.2700,10.7600,8.1177
133500.0,1.3100,14.2100,0.2315
133550.0,4.0200,6.9300,-0.5721
133600.0,7.0600,7.4000,-2.3018
133650.0,-0.8000,10.4200,2.7922
133700.0,0.6900,5.0900,-0.0409
133750.0,3.3400,8.1200,-1.0760
133800.0,4.3700,7.9700,1.9886
133850.0,7.0600,9.9200,2.3699
133900.0,6.1700,12.3700,1.1441
133950.0,5.7100,13.3300,0.9943
134000.0,2.6000,11.9200,-1.7298
134050.0,0.6900,16.4000,2.3427
134100.0,3.5300,11.8800,0.1498
134150.0,3.6400,3.3000,-0.5040
134200.0,0.2300,2.1500,-0.0817
134250.0,0.0800,3.4900,2.2201
134300.0,3.0200,7.5900,5.4073
134350.0,3.9500,13.5300,7.3141
134400.0,1.3800,9.0800,9.8884
134450.0,1.5000,16.6600,-0.7219
134500.0,3.6800,6.7400,0.3814
134550.0,5.7100,8.6900,-2.3427
134600.0,-0.5700,10.4200,2.2201
134650.0,1.3800,5.5200,-0.9126
134700.0,3.3000,8.2000,-0.4222
134750.0,5.0500,7.4400,2.2610
134800.0,5.7100,10.3800,2.2610
134850.0,7.5900,11.4500,1.1850
134900.0,5.2200,13.5300,0.0817
134950.0,1.8400,11.9900,-2.1112
135000.0,1.1800,16.2800,0.5721
135050.0,4.1800,12.9100,2.7922
135100.0,4.8600,4.8200,-0.9126
135150.0,0.3100,1.3300,0.0817
135200.0,0.4600,1.9200,0.7219
135250.0,0.7200,5.5600,4.7126
135300.0,0.7200,5.5600,4.7126
135350.0,-0.7200,9.6200,11.1823
135400.0,3.8300,16.6300,1.5391
135450.0,2.4100,5.5200,-0.0409
135500.0,4.6700,5.6700,-2.5334
135550.0,1.1200,13.3800,3.1463
135600.0,1.3300,3.8700,-1.0760
135650.0,3.4500,8.7700,-1.0351
135700.0,5.0100,7.7800,1.8796
135750.0,5.4300,10.0000,2.9148
135800.0,6.4000,11.0700,1.2258
135850.0,4.9000,13.8700,1.0760
135900.0,3.3400,12.0300,-2.3427
135950.0,0.3800,16.2500,2.0703
136000.0,2.6800,11.2200,1.1850
136050.0,5.4800,3.7900,-0.5721
136100.0,0.8400,1.1800,-0.6946
136150.0,-0.2300,3.4900,1.0760
136200.0,1.3800,8.9200,6.5922
136250.0,3.9900,16.2100,6.7421
136300.0,-0.6500,7.9700,10.3106
136350.0,2.0700,16.0200,0.5721
136400.0,3.4100,6.5500,-0.6129
136450.0,5.1300,6.8500,-0.5721
136500.0,3.1700,11.6900,0.1090
136550.0,-0.3800,5.7900,2.3018
136600.0,3.7600,6.7400,-3.1735
136650.0,4.7100,7.2500,2.1520
136700.0,5.7100,10.0400,2.4925
136750.0,6.2800,10.6900,1.4165
136800.0,5.5600,14.2900,1.5663
136850.0,4.2100,10.4600,-1.8387
136900.0,-0.1500,15.3200,-0.0409
136950.0,2.6800,14.3700,2.6423
137000.0,6.0200,5.6000,-0.5040
137050.0,1.5000,1.4200,-0.1907
137100.0,-0.7200,2.8300,0.6946
137150.0,0.5700,6.0200,3.8273
137200.0,4.0200,13.0600,6.0474
137250.0,1.4600,12.4500,10.4604
137300.0,2.8300,11.6000,3.2553
137350.0,0.7600,11.5000,0.1090
137400.0,6.2400,7.5900,0.0409
137450.0,2.4500,6.1300,-2.0294
137500.0,0.2300,10.7600,3.1463
137550.0,1.4200,5.3300,-0.9126
137600.0,4.2500,6.9700,-0.2724
137650.0,5.4100,8.0500,2.0703
137700.0,5.6000,11.5000,1.8796
137750.0,6.2400,14.1000,1.5663
137800.0,6.2100,12.7900,-1.5663
137850.0,0.4600,12.9100,-1.2667
137900.0,0.8900,15.7900,2.3699
137950.0,5.3300,7.2500,-0.2724
138000.0,3.3400,2.1100,0.3814
138050.0,-0.3800,2.4500,0.1090
138100.0,-0.3800,2.4500,0.1090
138150.0,-0.3800,2.4500,0.1090
138200.0,3.2100,15.3200,7.3550
138250.0,2.1100,11.7300,5.4073
138300.0,1.3300,13.8200,-0.9534
138350.0,6.4000,5.8600,-0.5040
138400.0,4.1000,7.8600,-3.0237
138450.0,0.5000,8.2800,4.3313
138500.0,1.6900,5.6300,-2.8739
138550.0,4.4800,8.1200,2.5334
138600.0,5.2400,8.6600,1.7570
138650.0,6.4000,10.7300,1.3757
138700.0,5.8300,13.2900,1.6889
138750.0,5.2200,11.5600,-1.9886
138800.0,0.9300,13.5700,-1.4165
138850.0,0.0800,16.6600,3.4459
138900.0,4.8200,7.4600,-1.1169
138950.0,3.6400,1.4600,0.3133
139000.0,-0.2300,2.8300,0.8445
139050.0,-0.2300,4.8600,2.1520
139100.0,3.7900,9.5300,6.7829
139150.0,2.9800,16.4400,9.1937
139200.0,2.0700,10.9500,5.7478
139250.0,0.4200,14.2100,-0.1907
139300.0,6.5100,5.2800,-0.1090
139350.0,5.2400,6.2400,-2.3699
139400.0,0.1100,10.9500,3.6366
139450.0,0.7200,5.4100,-1.1850
139500.0,4.0600,8.3900,0.4631
139550.0,4.6300,7.8900,1.2258
139600.0,5.1800,11.1400,1.8796
139650.0,5.5200,11.9900,0.8445
139700.0,6.3200,13.7200,0.1907
139750.0,3.1700,12.6000,-1.7570
139800.0,0.4600,16.0200,2.5334
139850.0,2.8700,9.6600,0.2724
139900.0,3.6800,3.3000,-0.8853
139950.0,0.6500,1.7600,-0.1498
140000.0,-0.3400,3.6400,2.1793
140050.0,4.1000,9.8100,7.3550
140100.0,4.0200,14.0600,8.3901
140150.0,0.5300,10.5700,7.7772
140200.0,0.9500,15.3200,-0.1907
140250.0,5.6300,6.0900,-0.2996
140300.0,5.2400,8.3100,-2.4925
140350.0,5.2400,8.3100,-2.4925
140400.0,-0.3800,10.2300,3.3778
140450.0,1.0800,4.7500,-2.4925
140500.0,4.3700,7.9300,0.8445
140550.0,5.3700,8.2400,1.6072
140600.0,6.7000,10.4200,2.1793
140650.0,7.3100,12.8700,0.8853
140700.0,5.5200,13.4000,-1.7979
140750.0,0.7600,13.6700,-1.2667
140800.0,-0.2300,16.0400,3.5277
140850.0,4.8200,9.0000,-0.8036
140900.0,3.9100,1.0800,-0.7219
140950.0,-0.1500,2.1500,0.4222
141000.0,0.0000,3.6000,1.9886
141050.0,4.1800,10.6500,8.1995
141100.0,3.1100,15.8300,8.1586
141150.0,1.9900,11.8400,5.7886
141200.0,-0.8000,12.1500,0.0409
141250.0,2.6400,7.2700,-2.5334
141300.0,2.6400,7.2700,-2.5334
141350.0,0.0400,9.1100,3.3778
141400.0,1.6100,5.4300,-2.3427
141450.0,5.9000,7.7000,1.5663
141500.0,6.4700,7.9300,1.4982
141550.0,6.0200,10.7600,1.2667
141600.0,5.9000,14.1000,1.8796
141650.0,5.4800,10.5700,-2.1793
141700.0,-0.6100,16.0200,0.0817
141750.0,2.3400,14.7500,2.6423
141800.0,5.6000,5.9400,-0.6129
141850.0,2.2200,1.3300,0.0409
141900.0,-0.4200,2.3400,0.5721
141950.0,-0.1900,4.9400,3.0646
142000.0,5.4300,13.8000,7.5457
142050.0,1.0800,11.5400,11.2232
142100.0,3.6000,15.7900,1.7570
142150.0,0.6900,7.5900,0.8036
142200.0,6.7800,5.7100,-2.2201
142250.0,2.2600,10.9200,-1.6889
142300.0,0.9300,6.5500,3.1054
142350.0,2.1100,6.0900,-3.2553
142400.0,4.1000,8.2800,2.7922
142450.0,5.3700,8.6600,1.8387
142500.0,6.5900,10.9500,1.3348
142550.0,6.1300,13.9500,1.7298
142600.0,5.6300,10.9200,-2.1384
142650.0,-0.2300,15.6600,-0.8445
142700.0,2.1100,14.7900,2.9148
142750.0,5.0900,6.5900,-1.1441
142800.0,1.6900,2.0700,-0.2996
142850.0,-0.3800,3.4900,1.2667
142900.0,1.0800,4.7100,3.3778
142950.0,3.4500,10.1500,7.2052
143000.0,2.7900,14.2500,9.2346
143050.0,1.0400,9.8500,3.9908
143100.0,2.9100,15.8300,0.5721
143150.0,6.7400,4.9000,-0.0409
143200.0,2.1800,6.5100,-4.5628
143250.0,0.9500,11.5400,4.3721
143300.0,0.2300,5.0100,-3.5685
143350.0,5.2400,7.9300,2.2201
143400.0,5.4800,8.6900,2.1793
143450.0,7.1200,9.9200,1.4982
143500.0,5.5600,12.3400,1.4165
143550.0,5.6700,12.8700,-1.1441
143600.0,0.5000,15.0200,-2.4925
143650.0,0.9900,16.0400,3.1054
143700.0,4.6000,8.5000,-0.4631
143750.0,3.5700,2.1800,-0.3405
143800.0,-0.3000,2.3000,0.5312
143850.0,0.2300,4.0600,2.6423
143900.0,3.4100,8.8100,6.2381
143950.0,3.8300,16.5100,7.6683
144000.0,1.2300,9.8900,8.6625
144050.0,1.5400,14.2500,-0.2996
144100.0,5.5200,6.0200,-0.6538
144150.0,4.1800,7.4400,-3.5685
144200.0,-0.3800,9.6200,3.2553
144250.0,1.4600,5.2400,-2.6832
144300.0,5.5600,8.8500,2.6832
144350.0,5.8600,8.0500,1.7298
144400.0,6.1300,10.6100,1.6889
144450.0,5.9000,13.3300,1.1169
144500.0,5.9000,12.3700,-1.8796
144550.0,0.2700,13.9900,-2.1793
144600.0,0.1100,16.2800,3.2961
144650.0,4.9000,7.3100,-0.6946
144700.0,3.7200,1.8800,0.0409
144750.0,-0.0400,2.2200,0.6129
144800.0,0.4600,4.5200,2.3427
144850.0,3.3000,10.1900,7.2460
144900.0,2.9800,15.4300,8.4991
144950.0,0.2300,11.2600,5.8976
145000.0,2.1800,12.9500,0.1090
145050.0,6.2800,6.4000,-1.3076
145100.0,5.4800,7.9700,-3.2553
145150.0,0.3400,10.0800,3.7184
145200.0,1.4200,4.3700,-3.0646
145250.0,4.0600,8.5400,1.8387
145300.0,5.4800,8.3100,0.9534
145350.0,7.2700,10.9500,2.6832
145400.0,6.4000,11.2600,0.6538
145450.0,3.9500,13.6300,0.5721
145500.0,2.9600,10.7600,-2.5606
145550.0,-0.3000,15.8900,0.8036
145600.0,2.9100,13.2500,1.1850
145650.0,5.8600,3.7900,-0.0000
145700.0,1.6500,2.6000,0.6946
145750.0,-0.5300,3.2100,0.5312
145800.0,1.3800,6.9700,4.8216
145850.0,3.6400,13.0200,6.7829
145900.0,0.5000,11.2600,10.8418
145950.0,2.6800,16.8200,0.2315
146000.0,3.9900,5.5600,0.1090
146050.0,5.6000,6.3200,-1.8387
146100.0,0.5300,11.7500,0.9262
146150.0,0.8900,5.6000,0.9262
146200.0,3.4500,6.8500,-1.7570
146250.0,5.1300,7.7800,1.7979
146300.0,5.1300,7.7800,1.7979
146350.0,5.4300,10.1500,2.6832
146400.0,6.3200,11.1800,0.6946
146450.0,4.6700,14.2900,1.2667
146500.0,2.6400,12.1100,-2.2610
146550.0,-0.0400,16.2500,2.5606
146600.0,3.8700,10.5700,0.4631
146650.0,4.9400,2.4100,-0.2724
146700.0,0.2300,2.1800,0.5721
146750.0,-0.3000,3.8300,1.2258
146800.0,1.1800,7.8900,5.6661
146850.0,5.5600,15.4300,6.7012
146900.0,0.7600,9.1100,11.1142
146950.0,1.8800,14.7500,-0.5312
147000.0,2.1800,7.4600,0.3133
147050.0,6.2400,6.6300,-0.8853
147100.0,2.3700,10.6900,0.3405
147150.0,0.1100,5.3700,1.8387
147200.0,0.1100,5.3700,1.8387
147250.0,4.9000,7.6700,2.0294
147300.0,5.0100,9.6600,2.7649
147350.0,7.3500,10.8800,1.4165
147400.0,7.1600,14.7100,2.0703
147450.0,3.6800,10.2300,-0.9534
147500.0,1.5700,15.6600,0.1498
147550.0,2.6400,13.5300,2.2201
147600.0,6.0200,6.2800,-0.6538
147650.0,1.4200,1.6100,-1.1441
147700.0,-2.7500,3.0200,-1.1169
147750.0,-0.1900,4.8200,1.8387
147800.0,3.2600,10.9200,8.4719
147850.0,3.4500,14.2100,10.8418
147900.0,3.8700,13.6700,3.2961
147950.0,0.6500,9.3000,0.5721
148000.0,8.6600,7.2700,-1.1441
148050.0,2.3700,9.5100,-1.5255
148100.0,-0.8900,8.2400,2.7649
148150.0,1.2700,5.2200,-4.4402
148200.0,5.2200,7.8900,3.0237
148250.0,5.8300,8.8900,1.1441
148300.0,6.4400,11.5000,2.6832
148350.0,6.9700,13.4800,1.3757
148400.0,4.3300,11.8800,-1.4165
148450.0,0.4200,12.2600,-0.9534
148500.0,1.4600,16.4000,3.1054
148550.0,5.2200,7.8600,-0.7627
148600.0,2.9100,1.6500,0.6946
148650.0,-0.2300,2.3400,0.3405
148700.0,1.1400,3.6800,2.4517
148750.0,4.9900,12.1100,7.3141
148800.0,1.2700,14.2100,9.3027
148850.0,3.6800,11.9600,5.6252
148900.0,0.8000,11.2200,-0.6946
148950.0,5.0500,7.4000,-0.4631
149000.0,5.5200,8.2000,-2.6832
149050.0,-0.3800,9.0800,3.3370
149100.0,1.8800,5.9400,-2.3018
149150.0,4.5600,8.5000,2.0703
149200.0,5.0900,9.1500,1.8387
149250.0,6.8200,10.3400,0.8853
149300.0,6.3600,13.8700,2.0703
149350.0,5.8300,11.1400,-2.2610
149400.0,-0.0400,15.2100,-0.3814
149450.0,1.4200,14.6700,2.7241
149500.0,4.3700,5.3300,-1.6889
149550.0,2.2200,1.8800,0.5040
149600.0,-0.1100,1.9200,-0.2724
149650.0,0.1900,6.5100,4.0997
149700.0,3.9100,12.7200,7.7364
149750.0,0.1500,14.4400,10.4196
149800.0,2.9100,15.5500,2.8330
149850.0,1.7300,5.4300,-1.0760
149900.0,6.9300,7.8600,-1.1169
149950.0,2.1800,9.9200,-0.9126
